TITLE	
DATA TYPE	
ORIGIN	JASCO
OWNER	
DATE	19/09/02
TIME	20:00:41
SPECTROMETER/DATA SYSTEM	JASCO Corp., V-570, Rev. 1.00
RESOLUTION	
DELTAX	-1
XUNITS	NANOMETERS
YUNITS	ABSORBANCE
FIRSTX	840.0000
LASTX	190.0000
NPOINTS	651
FIRSTY	0.01681
MAXY	0.46897
MINY	0.01611
XYDATA
840.0000	0.01681
839.0000	0.01674
838.0000	0.0167
837.0000	0.01677
836.0000	0.01674
835.0000	0.01672
834.0000	0.01662
833.0000	0.01658
832.0000	0.01662
831.0000	0.01662
830.0000	0.01665
829.0000	0.01667
828.0000	0.01669
827.0000	0.01669
826.0000	0.01664
825.0000	0.01663
824.0000	0.01667
823.0000	0.01669
822.0000	0.0167
821.0000	0.01678
820.0000	0.01687
819.0000	0.01681
818.0000	0.01671
817.0000	0.01657
816.0000	0.01659
815.0000	0.01669
814.0000	0.01678
813.0000	0.01689
812.0000	0.01688
811.0000	0.01686
810.0000	0.01677
809.0000	0.01665
808.0000	0.01664
807.0000	0.01656
806.0000	0.01663
805.0000	0.01657
804.0000	0.01654
803.0000	0.01652
802.0000	0.0166
801.0000	0.01649
800.0000	0.01656
799.0000	0.01652
798.0000	0.01647
797.0000	0.01642
796.0000	0.01648
795.0000	0.01651
794.0000	0.01662
793.0000	0.01661
792.0000	0.01662
791.0000	0.01669
790.0000	0.01659
789.0000	0.01655
788.0000	0.01643
787.0000	0.01644
786.0000	0.01642
785.0000	0.01647
784.0000	0.01644
783.0000	0.01626
782.0000	0.01627
781.0000	0.01625
780.0000	0.01634
779.0000	0.01626
778.0000	0.01621
777.0000	0.01616
776.0000	0.01626
775.0000	0.0163
774.0000	0.01628
773.0000	0.01621
772.0000	0.01611
771.0000	0.01615
770.0000	0.01617
769.0000	0.01629
768.0000	0.01632
767.0000	0.0163
766.0000	0.01629
765.0000	0.01628
764.0000	0.01638
763.0000	0.01639
762.0000	0.01642
761.0000	0.01632
760.0000	0.01626
759.0000	0.01616
758.0000	0.01619
757.0000	0.01621
756.0000	0.01625
755.0000	0.01622
754.0000	0.01615
753.0000	0.01618
752.0000	0.01624
751.0000	0.0163
750.0000	0.01625
749.0000	0.01625
748.0000	0.0164
747.0000	0.01649
746.0000	0.01655
745.0000	0.01656
744.0000	0.01658
743.0000	0.01666
742.0000	0.0167
741.0000	0.01674
740.0000	0.01668
739.0000	0.01679
738.0000	0.01678
737.0000	0.01688
736.0000	0.0169
735.0000	0.01697
734.0000	0.01706
733.0000	0.01718
732.0000	0.01734
731.0000	0.01751
730.0000	0.01772
729.0000	0.01789
728.0000	0.0181
727.0000	0.01825
726.0000	0.01848
725.0000	0.01869
724.0000	0.01894
723.0000	0.01923
722.0000	0.01952
721.0000	0.01985
720.0000	0.02025
719.0000	0.0207
718.0000	0.02111
717.0000	0.02159
716.0000	0.02214
715.0000	0.02288
714.0000	0.0236
713.0000	0.02445
712.0000	0.02533
711.0000	0.02644
710.0000	0.02764
709.0000	0.02905
708.0000	0.03053
707.0000	0.03217
706.0000	0.03408
705.0000	0.0362
704.0000	0.03859
703.0000	0.04113
702.0000	0.04393
701.0000	0.04718
700.0000	0.05072
699.0000	0.05458
698.0000	0.05889
697.0000	0.06378
696.0000	0.06927
695.0000	0.07537
694.0000	0.08198
693.0000	0.08931
692.0000	0.09738
691.0000	0.10629
690.0000	0.1161
689.0000	0.12678
688.0000	0.13839
687.0000	0.15095
686.0000	0.16448
685.0000	0.17891
684.0000	0.19427
683.0000	0.21052
682.0000	0.22746
681.0000	0.24505
680.0000	0.26326
679.0000	0.28183
678.0000	0.30049
677.0000	0.31885
676.0000	0.33676
675.0000	0.35405
674.0000	0.37063
673.0000	0.38615
672.0000	0.40056
671.0000	0.41361
670.0000	0.42528
669.0000	0.43552
668.0000	0.44422
667.0000	0.45154
666.0000	0.45733
665.0000	0.46184
664.0000	0.46514
663.0000	0.46735
662.0000	0.46858
661.0000	0.46897
660.0000	0.46848
659.0000	0.46724
658.0000	0.46532
657.0000	0.46281
656.0000	0.45972
655.0000	0.4561
654.0000	0.45198
653.0000	0.44729
652.0000	0.44215
651.0000	0.43659
650.0000	0.43068
649.0000	0.42439
648.0000	0.41781
647.0000	0.4109
646.0000	0.4038
645.0000	0.39671
644.0000	0.38955
643.0000	0.38245
642.0000	0.37536
641.0000	0.36845
640.0000	0.36171
639.0000	0.35518
638.0000	0.34892
637.0000	0.34286
636.0000	0.33708
635.0000	0.33152
634.0000	0.32626
633.0000	0.32125
632.0000	0.31649
631.0000	0.31202
630.0000	0.30787
629.0000	0.30399
628.0000	0.30053
627.0000	0.29733
626.0000	0.29446
625.0000	0.29172
624.0000	0.28935
623.0000	0.28716
622.0000	0.28521
621.0000	0.28334
620.0000	0.28153
619.0000	0.27979
618.0000	0.27806
617.0000	0.27633
616.0000	0.27454
615.0000	0.27264
614.0000	0.27057
613.0000	0.26835
612.0000	0.26591
611.0000	0.26335
610.0000	0.26053
609.0000	0.25745
608.0000	0.25413
607.0000	0.25053
606.0000	0.24667
605.0000	0.2426
604.0000	0.23831
603.0000	0.23376
602.0000	0.229
601.0000	0.22419
600.0000	0.21926
599.0000	0.21431
598.0000	0.20926
597.0000	0.20415
596.0000	0.19898
595.0000	0.19385
594.0000	0.18885
593.0000	0.18389
592.0000	0.17893
591.0000	0.17399
590.0000	0.16912
589.0000	0.16438
588.0000	0.15976
587.0000	0.15526
586.0000	0.15091
585.0000	0.14667
584.0000	0.14258
583.0000	0.13872
582.0000	0.13491
581.0000	0.13126
580.0000	0.12765
579.0000	0.12422
578.0000	0.12091
577.0000	0.11773
576.0000	0.11465
575.0000	0.11175
574.0000	0.10897
573.0000	0.10628
572.0000	0.10369
571.0000	0.10123
570.0000	0.09889
569.0000	0.09672
568.0000	0.0945
567.0000	0.09237
566.0000	0.09028
565.0000	0.08828
564.0000	0.08627
563.0000	0.08435
562.0000	0.0824
561.0000	0.08062
560.0000	0.07886
559.0000	0.07712
558.0000	0.07546
557.0000	0.07379
556.0000	0.07222
555.0000	0.07064
554.0000	0.06909
553.0000	0.06754
552.0000	0.06612
551.0000	0.06464
550.0000	0.06323
549.0000	0.06187
548.0000	0.06059
547.0000	0.05934
546.0000	0.05813
545.0000	0.057
544.0000	0.05598
543.0000	0.05495
542.0000	0.05391
541.0000	0.0529
540.0000	0.05193
539.0000	0.05101
538.0000	0.0502
537.0000	0.04953
536.0000	0.04882
535.0000	0.0481
534.0000	0.04746
533.0000	0.04685
532.0000	0.04633
531.0000	0.04573
530.0000	0.04518
529.0000	0.04468
528.0000	0.04419
527.0000	0.04383
526.0000	0.04346
525.0000	0.04317
524.0000	0.04289
523.0000	0.04267
522.0000	0.04249
521.0000	0.0423
520.0000	0.04192
519.0000	0.04165
518.0000	0.04145
517.0000	0.04129
516.0000	0.04125
515.0000	0.04118
514.0000	0.04113
513.0000	0.04101
512.0000	0.04095
511.0000	0.04087
510.0000	0.04083
509.0000	0.0408
508.0000	0.04071
507.0000	0.04066
506.0000	0.04064
505.0000	0.04057
504.0000	0.04053
503.0000	0.04045
502.0000	0.04043
501.0000	0.04047
500.0000	0.0403
499.0000	0.0401
498.0000	0.03985
497.0000	0.03971
496.0000	0.03961
495.0000	0.03955
494.0000	0.03937
493.0000	0.03918
492.0000	0.03893
491.0000	0.03869
490.0000	0.03848
489.0000	0.03818
488.0000	0.03791
487.0000	0.03761
486.0000	0.03727
485.0000	0.03701
484.0000	0.03673
483.0000	0.03649
482.0000	0.03612
481.0000	0.03572
480.0000	0.03536
479.0000	0.03508
478.0000	0.03483
477.0000	0.03453
476.0000	0.03424
475.0000	0.03389
474.0000	0.03356
473.0000	0.03321
472.0000	0.03286
471.0000	0.03248
470.0000	0.03216
469.0000	0.03186
468.0000	0.0316
467.0000	0.03133
466.0000	0.03099
465.0000	0.03064
464.0000	0.03025
463.0000	0.02993
462.0000	0.02965
461.0000	0.02941
460.0000	0.02912
459.0000	0.0288
458.0000	0.02846
457.0000	0.02809
456.0000	0.02782
455.0000	0.02746
454.0000	0.02718
453.0000	0.02691
452.0000	0.02658
451.0000	0.02631
450.0000	0.02599
449.0000	0.02576
448.0000	0.02542
447.0000	0.02516
446.0000	0.02491
445.0000	0.02468
444.0000	0.0245
443.0000	0.02425
442.0000	0.02403
441.0000	0.02374
440.0000	0.02348
439.0000	0.02324
438.0000	0.02299
437.0000	0.02285
436.0000	0.02269
435.0000	0.02255
434.0000	0.02239
433.0000	0.0222
432.0000	0.02205
431.0000	0.02181
430.0000	0.02166
429.0000	0.02158
428.0000	0.02149
427.0000	0.02134
426.0000	0.02112
425.0000	0.02096
424.0000	0.02088
423.0000	0.02087
422.0000	0.02084
421.0000	0.02075
420.0000	0.02049
419.0000	0.0204
418.0000	0.02035
417.0000	0.02031
416.0000	0.02043
415.0000	0.02061
414.0000	0.02071
413.0000	0.02075
412.0000	0.02088
411.0000	0.02108
410.0000	0.02131
409.0000	0.02152
408.0000	0.02166
407.0000	0.02179
406.0000	0.02201
405.0000	0.02238
404.0000	0.02292
403.0000	0.02332
402.0000	0.02369
401.0000	0.02387
400.0000	0.02431
399.0000	0.02473
398.0000	0.02513
397.0000	0.02535
396.0000	0.02546
395.0000	0.02546
394.0000	0.02562
393.0000	0.02575
392.0000	0.0259
391.0000	0.02602
390.0000	0.02606
389.0000	0.02613
388.0000	0.02617
387.0000	0.02617
386.0000	0.02625
385.0000	0.02624
384.0000	0.02625
383.0000	0.0263
382.0000	0.02645
381.0000	0.0266
380.0000	0.02669
379.0000	0.02666
378.0000	0.02677
377.0000	0.02691
376.0000	0.0272
375.0000	0.0274
374.0000	0.0276
373.0000	0.02771
372.0000	0.02787
371.0000	0.02811
370.0000	0.02852
369.0000	0.02877
368.0000	0.02904
367.0000	0.0293
366.0000	0.02962
365.0000	0.03003
364.0000	0.03042
363.0000	0.03091
362.0000	0.03141
361.0000	0.03209
360.0000	0.03276
359.0000	0.0335
358.0000	0.03422
357.0000	0.03508
356.0000	0.03588
355.0000	0.03674
354.0000	0.03764
353.0000	0.03866
352.0000	0.03979
351.0000	0.04083
350.0000	0.04199
349.0000	0.04316
348.0000	0.04443
347.0000	0.04597
346.0000	0.04745
345.0000	0.04905
344.0000	0.05086
343.0000	0.05276
342.0000	0.05492
341.0000	0.05716
340.0000	0.06025
339.0000	0.06239
338.0000	0.06492
337.0000	0.06801
336.0000	0.07107
335.0000	0.07419
334.0000	0.07725
333.0000	0.08044
332.0000	0.08348
331.0000	0.08637
330.0000	0.08872
329.0000	0.09093
328.0000	0.09255
327.0000	0.09409
326.0000	0.09548
325.0000	0.09681
324.0000	0.09796
323.0000	0.09878
322.0000	0.09965
321.0000	0.1007
320.0000	0.10168
319.0000	0.10282
318.0000	0.104
317.0000	0.10512
316.0000	0.10661
315.0000	0.1083
314.0000	0.11049
313.0000	0.11266
312.0000	0.11555
311.0000	0.11921
310.0000	0.12392
309.0000	0.1296
308.0000	0.13653
307.0000	0.14464
306.0000	0.15396
305.0000	0.16434
304.0000	0.17571
303.0000	0.18819
302.0000	0.20148
301.0000	0.21544
300.0000	0.22965
299.0000	0.24393
298.0000	0.25765
297.0000	0.27076
296.0000	0.28247
295.0000	0.29259
294.0000	0.30056
293.0000	0.30571
292.0000	0.30786
291.0000	0.30664
290.0000	0.30266
289.0000	0.29656
288.0000	0.28901
287.0000	0.28022
286.0000	0.27083
285.0000	0.2613
284.0000	0.25203
283.0000	0.24291
282.0000	0.23412
281.0000	0.22524
280.0000	0.21661
279.0000	0.20846
278.0000	0.20064
277.0000	0.19323
276.0000	0.18626
275.0000	0.17982
274.0000	0.17414
273.0000	0.16896
272.0000	0.16435
271.0000	0.15977
270.0000	0.15555
269.0000	0.15124
268.0000	0.14724
267.0000	0.14328
266.0000	0.13977
265.0000	0.13672
264.0000	0.13416
263.0000	0.13195
262.0000	0.13023
261.0000	0.1292
260.0000	0.12886
259.0000	0.12915
258.0000	0.12987
257.0000	0.13113
256.0000	0.13318
255.0000	0.13586
254.0000	0.13937
253.0000	0.14361
252.0000	0.14856
251.0000	0.15383
250.0000	0.15937
249.0000	0.1645
248.0000	0.16866
247.0000	0.17135
246.0000	0.17241
245.0000	0.17168
244.0000	0.16974
243.0000	0.16649
242.0000	0.16265
241.0000	0.15822
240.0000	0.15373
239.0000	0.14931
238.0000	0.1451
237.0000	0.14067
236.0000	0.13661
235.0000	0.13283
234.0000	0.12929
233.0000	0.12634
232.0000	0.12398
231.0000	0.12239
230.0000	0.12141
229.0000	0.12067
228.0000	0.12049
227.0000	0.1206
226.0000	0.12135
225.0000	0.12258
224.0000	0.12412
223.0000	0.12615
222.0000	0.12868
221.0000	0.13161
220.0000	0.13489
219.0000	0.13856
218.0000	0.14264
217.0000	0.14685
216.0000	0.15105
215.0000	0.15502
214.0000	0.15869
213.0000	0.16257
212.0000	0.16637
211.0000	0.17013
210.0000	0.17365
209.0000	0.17705
208.0000	0.18001
207.0000	0.18279
206.0000	0.18503
205.0000	0.18672
204.0000	0.18728
203.0000	0.1863
202.0000	0.18319
201.0000	0.17772
200.0000	0.17168
199.0000	0.16608
198.0000	0.16312
197.0000	0.16137
196.0000	0.16221
195.0000	0.16352
194.0000	0.16681
193.0000	0.17204
192.0000	0.17627
191.0000	0.18009
190.0000	0.17902
