TITLE	
DATA TYPE	
ORIGIN	JASCO
OWNER	
DATE	19/09/02
TIME	19:55:26
SPECTROMETER/DATA SYSTEM	JASCO Corp., V-570, Rev. 1.00
RESOLUTION	
DELTAX	-1
XUNITS	NANOMETERS
YUNITS	ABSORBANCE
FIRSTX	840.0000
LASTX	190.0000
NPOINTS	651
FIRSTY	0.01274
MAXY	1.05550
MINY	0.00820
XYDATA
840.0000	0.01274
839.0000	0.0127
838.0000	0.01275
837.0000	0.01266
836.0000	0.01264
835.0000	0.01262
834.0000	0.01255
833.0000	0.01256
832.0000	0.01251
831.0000	0.01256
830.0000	0.01253
829.0000	0.01247
828.0000	0.01257
827.0000	0.01249
826.0000	0.01253
825.0000	0.01248
824.0000	0.01255
823.0000	0.01263
822.0000	0.01252
821.0000	0.01263
820.0000	0.01264
819.0000	0.01268
818.0000	0.01263
817.0000	0.01258
816.0000	0.01253
815.0000	0.0126
814.0000	0.01247
813.0000	0.01252
812.0000	0.01242
811.0000	0.0123
810.0000	0.01215
809.0000	0.01215
808.0000	0.01225
807.0000	0.01233
806.0000	0.01241
805.0000	0.01228
804.0000	0.01215
803.0000	0.01202
802.0000	0.01209
801.0000	0.01204
800.0000	0.01209
799.0000	0.01209
798.0000	0.01197
797.0000	0.012
796.0000	0.01197
795.0000	0.012
794.0000	0.01195
793.0000	0.01199
792.0000	0.01206
791.0000	0.01215
790.0000	0.01214
789.0000	0.01202
788.0000	0.01187
787.0000	0.01184
786.0000	0.01174
785.0000	0.01174
784.0000	0.01173
783.0000	0.01173
782.0000	0.01182
781.0000	0.01175
780.0000	0.01178
779.0000	0.01175
778.0000	0.0118
777.0000	0.01186
776.0000	0.01187
775.0000	0.01195
774.0000	0.01178
773.0000	0.01175
772.0000	0.01163
771.0000	0.01172
770.0000	0.01176
769.0000	0.01189
768.0000	0.01191
767.0000	0.01192
766.0000	0.01191
765.0000	0.0118
764.0000	0.01183
763.0000	0.01175
762.0000	0.01186
761.0000	0.0119
760.0000	0.01199
759.0000	0.01198
758.0000	0.01201
757.0000	0.01204
756.0000	0.01212
755.0000	0.0121
754.0000	0.01206
753.0000	0.01211
752.0000	0.01226
751.0000	0.0124
750.0000	0.01247
749.0000	0.01257
748.0000	0.01273
747.0000	0.01293
746.0000	0.01306
745.0000	0.01313
744.0000	0.01323
743.0000	0.01334
742.0000	0.01354
741.0000	0.01373
740.0000	0.01392
739.0000	0.01405
738.0000	0.01417
737.0000	0.01448
736.0000	0.01465
735.0000	0.01494
734.0000	0.01515
733.0000	0.01544
732.0000	0.0158
731.0000	0.01624
730.0000	0.0167
729.0000	0.01717
728.0000	0.01766
727.0000	0.01808
726.0000	0.01867
725.0000	0.0192
724.0000	0.01987
723.0000	0.02056
722.0000	0.02136
721.0000	0.0222
720.0000	0.02318
719.0000	0.0242
718.0000	0.02533
717.0000	0.02657
716.0000	0.02794
715.0000	0.02961
714.0000	0.03143
713.0000	0.03345
712.0000	0.03569
711.0000	0.03821
710.0000	0.04105
709.0000	0.04431
708.0000	0.04789
707.0000	0.05176
706.0000	0.05622
705.0000	0.06118
704.0000	0.0668
703.0000	0.07301
702.0000	0.07985
701.0000	0.08761
700.0000	0.09618
699.0000	0.10577
698.0000	0.11645
697.0000	0.12844
696.0000	0.14178
695.0000	0.15652
694.0000	0.17271
693.0000	0.19068
692.0000	0.21051
691.0000	0.23234
690.0000	0.25621
689.0000	0.28231
688.0000	0.31073
687.0000	0.34152
686.0000	0.37472
685.0000	0.41013
684.0000	0.44768
683.0000	0.4872
682.0000	0.52842
681.0000	0.5713
680.0000	0.61542
679.0000	0.66035
678.0000	0.7052
677.0000	0.74906
676.0000	0.79161
675.0000	0.83237
674.0000	0.87095
673.0000	0.90651
672.0000	0.93875
671.0000	0.96718
670.0000	0.99173
669.0000	1.01217
668.0000	1.02851
667.0000	1.04074
666.0000	1.04918
665.0000	1.05394
664.0000	1.0555
663.0000	1.05412
662.0000	1.05032
661.0000	1.04438
660.0000	1.03662
659.0000	1.02722
658.0000	1.01651
657.0000	1.00462
656.0000	0.99179
655.0000	0.97812
654.0000	0.96364
653.0000	0.94839
652.0000	0.93242
651.0000	0.91589
650.0000	0.89879
649.0000	0.88136
648.0000	0.86364
647.0000	0.8457
646.0000	0.82763
645.0000	0.8097
644.0000	0.79202
643.0000	0.77469
642.0000	0.75781
641.0000	0.74145
640.0000	0.72583
639.0000	0.71097
638.0000	0.69694
637.0000	0.68369
636.0000	0.67134
635.0000	0.65984
634.0000	0.64915
633.0000	0.63935
632.0000	0.63041
631.0000	0.6224
630.0000	0.61524
629.0000	0.60892
628.0000	0.60341
627.0000	0.59877
626.0000	0.59486
625.0000	0.59162
624.0000	0.58896
623.0000	0.58689
622.0000	0.58515
621.0000	0.58366
620.0000	0.58237
619.0000	0.58121
618.0000	0.58
617.0000	0.57849
616.0000	0.57669
615.0000	0.57447
614.0000	0.57173
613.0000	0.56838
612.0000	0.56427
611.0000	0.55937
610.0000	0.55367
609.0000	0.54709
608.0000	0.53973
607.0000	0.53146
606.0000	0.52235
605.0000	0.51251
604.0000	0.502
603.0000	0.49088
602.0000	0.47919
601.0000	0.4672
600.0000	0.45488
599.0000	0.44238
598.0000	0.42984
597.0000	0.41721
596.0000	0.40469
595.0000	0.39221
594.0000	0.37992
593.0000	0.36787
592.0000	0.35603
591.0000	0.34441
590.0000	0.33309
589.0000	0.32209
588.0000	0.31148
587.0000	0.30108
586.0000	0.29108
585.0000	0.28148
584.0000	0.27222
583.0000	0.26338
582.0000	0.25482
581.0000	0.24666
580.0000	0.23879
579.0000	0.23129
578.0000	0.22411
577.0000	0.21725
576.0000	0.21068
575.0000	0.2044
574.0000	0.19836
573.0000	0.19257
572.0000	0.18709
571.0000	0.18188
570.0000	0.17688
569.0000	0.17204
568.0000	0.1673
567.0000	0.16271
566.0000	0.15824
565.0000	0.15388
564.0000	0.14964
563.0000	0.14549
562.0000	0.14134
561.0000	0.13733
560.0000	0.1334
559.0000	0.12947
558.0000	0.1257
557.0000	0.12191
556.0000	0.11822
555.0000	0.11459
554.0000	0.11103
553.0000	0.10755
552.0000	0.10417
551.0000	0.10078
550.0000	0.09749
549.0000	0.09434
548.0000	0.09128
547.0000	0.08842
546.0000	0.08562
545.0000	0.08292
544.0000	0.08037
543.0000	0.07793
542.0000	0.07561
541.0000	0.07335
540.0000	0.07116
539.0000	0.06908
538.0000	0.06712
537.0000	0.06539
536.0000	0.06369
535.0000	0.06208
534.0000	0.06056
533.0000	0.05913
532.0000	0.05781
531.0000	0.05655
530.0000	0.05536
529.0000	0.05427
528.0000	0.0532
527.0000	0.05227
526.0000	0.05139
525.0000	0.05067
524.0000	0.04998
523.0000	0.04941
522.0000	0.04884
521.0000	0.04835
520.0000	0.04754
519.0000	0.04713
518.0000	0.04679
517.0000	0.04646
516.0000	0.04621
515.0000	0.04596
514.0000	0.04572
513.0000	0.04554
512.0000	0.04544
511.0000	0.04536
510.0000	0.04531
509.0000	0.04522
508.0000	0.04512
507.0000	0.04504
506.0000	0.045
505.0000	0.04493
504.0000	0.04482
503.0000	0.04473
502.0000	0.04468
501.0000	0.04461
500.0000	0.04446
499.0000	0.04418
498.0000	0.04391
497.0000	0.04363
496.0000	0.04336
495.0000	0.0431
494.0000	0.04279
493.0000	0.0424
492.0000	0.04195
491.0000	0.04139
490.0000	0.04095
489.0000	0.04042
488.0000	0.03991
487.0000	0.03936
486.0000	0.03876
485.0000	0.03825
484.0000	0.03763
483.0000	0.03709
482.0000	0.03647
481.0000	0.03583
480.0000	0.0352
479.0000	0.03457
478.0000	0.03399
477.0000	0.03339
476.0000	0.0329
475.0000	0.0323
474.0000	0.03171
473.0000	0.03102
472.0000	0.03038
471.0000	0.02979
470.0000	0.0293
469.0000	0.02877
468.0000	0.02825
467.0000	0.02768
466.0000	0.02714
465.0000	0.02659
464.0000	0.026
463.0000	0.02546
462.0000	0.02487
461.0000	0.02428
460.0000	0.02376
459.0000	0.02327
458.0000	0.02277
457.0000	0.02219
456.0000	0.02158
455.0000	0.02093
454.0000	0.02037
453.0000	0.01991
452.0000	0.01938
451.0000	0.01885
450.0000	0.01831
449.0000	0.01782
448.0000	0.01737
447.0000	0.01686
446.0000	0.01633
445.0000	0.01585
444.0000	0.01545
443.0000	0.01501
442.0000	0.01458
441.0000	0.01412
440.0000	0.01368
439.0000	0.01327
438.0000	0.0129
437.0000	0.01259
436.0000	0.01226
435.0000	0.01199
434.0000	0.01166
433.0000	0.01135
432.0000	0.01098
431.0000	0.01059
430.0000	0.01031
429.0000	0.01013
428.0000	0.00992
427.0000	0.00968
426.0000	0.00943
425.0000	0.00917
424.0000	0.00897
423.0000	0.00882
422.0000	0.00873
421.0000	0.00861
420.0000	0.00831
419.0000	0.0082
418.0000	0.00821
417.0000	0.00829
416.0000	0.00844
415.0000	0.00858
414.0000	0.0087
413.0000	0.00896
412.0000	0.00926
411.0000	0.00979
410.0000	0.01023
409.0000	0.01063
408.0000	0.01099
407.0000	0.01147
406.0000	0.01208
405.0000	0.01281
404.0000	0.01353
403.0000	0.01416
402.0000	0.01482
401.0000	0.01538
400.0000	0.0161
399.0000	0.01654
398.0000	0.01703
397.0000	0.01724
396.0000	0.01736
395.0000	0.01743
394.0000	0.01742
393.0000	0.01739
392.0000	0.01737
391.0000	0.01721
390.0000	0.01703
389.0000	0.01682
388.0000	0.01652
387.0000	0.01614
386.0000	0.01585
385.0000	0.01562
384.0000	0.0154
383.0000	0.01513
382.0000	0.01485
381.0000	0.01464
380.0000	0.01445
379.0000	0.01421
378.0000	0.01403
377.0000	0.01394
376.0000	0.0139
375.0000	0.01389
374.0000	0.01374
373.0000	0.01358
372.0000	0.01344
371.0000	0.01335
370.0000	0.01338
369.0000	0.01336
368.0000	0.01353
367.0000	0.01351
366.0000	0.01366
365.0000	0.0138
364.0000	0.01396
363.0000	0.01417
362.0000	0.01456
361.0000	0.01514
360.0000	0.01579
359.0000	0.0164
358.0000	0.01707
357.0000	0.01781
356.0000	0.01854
355.0000	0.01937
354.0000	0.02027
353.0000	0.02121
352.0000	0.02228
351.0000	0.02334
350.0000	0.02451
349.0000	0.02573
348.0000	0.02721
347.0000	0.02896
346.0000	0.03078
345.0000	0.03275
344.0000	0.03509
343.0000	0.0377
342.0000	0.04073
341.0000	0.04414
340.0000	0.04934
339.0000	0.05303
338.0000	0.05725
337.0000	0.06248
336.0000	0.06784
335.0000	0.07355
334.0000	0.07931
333.0000	0.08491
332.0000	0.09018
331.0000	0.09497
330.0000	0.09911
329.0000	0.10265
328.0000	0.10541
327.0000	0.10783
326.0000	0.10968
325.0000	0.11124
324.0000	0.11273
323.0000	0.11403
322.0000	0.1154
321.0000	0.11696
320.0000	0.11883
319.0000	0.12082
318.0000	0.12328
317.0000	0.12582
316.0000	0.12919
315.0000	0.1329
314.0000	0.13724
313.0000	0.14232
312.0000	0.14888
311.0000	0.1576
310.0000	0.16849
309.0000	0.18171
308.0000	0.19734
307.0000	0.21575
306.0000	0.23682
305.0000	0.26033
304.0000	0.28601
303.0000	0.31369
302.0000	0.34286
301.0000	0.37352
300.0000	0.4047
299.0000	0.4359
298.0000	0.46588
297.0000	0.49355
296.0000	0.51799
295.0000	0.53808
294.0000	0.55296
293.0000	0.56168
292.0000	0.5639
291.0000	0.55933
290.0000	0.54865
289.0000	0.5331
288.0000	0.51429
287.0000	0.49399
286.0000	0.47264
285.0000	0.45124
284.0000	0.4301
283.0000	0.40947
282.0000	0.3893
281.0000	0.36941
280.0000	0.34983
279.0000	0.33109
278.0000	0.31299
277.0000	0.29612
276.0000	0.28046
275.0000	0.26616
274.0000	0.25329
273.0000	0.24148
272.0000	0.23079
271.0000	0.22035
270.0000	0.21028
269.0000	0.20025
268.0000	0.19039
267.0000	0.18113
266.0000	0.17262
265.0000	0.1651
264.0000	0.15885
263.0000	0.15384
262.0000	0.15022
261.0000	0.14794
260.0000	0.14715
259.0000	0.14765
258.0000	0.14981
257.0000	0.15306
256.0000	0.15794
255.0000	0.16436
254.0000	0.17248
253.0000	0.18254
252.0000	0.19399
251.0000	0.20663
250.0000	0.21928
249.0000	0.23055
248.0000	0.23915
247.0000	0.2441
246.0000	0.24485
245.0000	0.24173
244.0000	0.23534
243.0000	0.22673
242.0000	0.2168
241.0000	0.20593
240.0000	0.19465
239.0000	0.18325
238.0000	0.17225
237.0000	0.16152
236.0000	0.15151
235.0000	0.14222
234.0000	0.13383
233.0000	0.12653
232.0000	0.12027
231.0000	0.11536
230.0000	0.11153
229.0000	0.10835
228.0000	0.1057
227.0000	0.1032
226.0000	0.10124
225.0000	0.09989
224.0000	0.09918
223.0000	0.09928
222.0000	0.10035
221.0000	0.10211
220.0000	0.10447
219.0000	0.10724
218.0000	0.11066
217.0000	0.11399
216.0000	0.11762
215.0000	0.1214
214.0000	0.12502
213.0000	0.12899
212.0000	0.1332
211.0000	0.13763
210.0000	0.14226
209.0000	0.1469
208.0000	0.15165
207.0000	0.15642
206.0000	0.16171
205.0000	0.16645
204.0000	0.17105
203.0000	0.17377
202.0000	0.17459
201.0000	0.17332
200.0000	0.17138
199.0000	0.16986
198.0000	0.16988
197.0000	0.17111
196.0000	0.1744
195.0000	0.17791
194.0000	0.1834
193.0000	0.18953
192.0000	0.1959
191.0000	0.19957
190.0000	0.19853
