TITLE	
DATA TYPE	
ORIGIN	JASCO
OWNER	
DATE	19/09/02
TIME	19:50:12
SPECTROMETER/DATA SYSTEM	JASCO Corp., V-570, Rev. 1.00
RESOLUTION	
DELTAX	-1
XUNITS	NANOMETERS
YUNITS	ABSORBANCE
FIRSTX	840.0000
LASTX	190.0000
NPOINTS	651
FIRSTY	0.01468
MAXY	0.42731
MINY	0.00999
XYDATA
840.0000	0.01468
839.0000	0.01451
838.0000	0.01452
837.0000	0.01461
836.0000	0.01455
835.0000	0.0145
834.0000	0.01441
833.0000	0.01435
832.0000	0.01443
831.0000	0.01427
830.0000	0.0142
829.0000	0.01418
828.0000	0.01436
827.0000	0.0144
826.0000	0.01444
825.0000	0.01429
824.0000	0.0143
823.0000	0.01444
822.0000	0.01446
821.0000	0.01446
820.0000	0.01444
819.0000	0.01445
818.0000	0.01437
817.0000	0.01424
816.0000	0.01429
815.0000	0.01433
814.0000	0.01435
813.0000	0.01444
812.0000	0.01445
811.0000	0.01433
810.0000	0.0142
809.0000	0.01412
808.0000	0.01409
807.0000	0.01413
806.0000	0.01408
805.0000	0.01403
804.0000	0.01397
803.0000	0.01386
802.0000	0.01392
801.0000	0.01381
800.0000	0.01383
799.0000	0.01377
798.0000	0.01369
797.0000	0.01365
796.0000	0.01368
795.0000	0.01363
794.0000	0.01371
793.0000	0.01374
792.0000	0.01383
791.0000	0.01377
790.0000	0.0137
789.0000	0.01355
788.0000	0.0134
787.0000	0.01341
786.0000	0.0134
785.0000	0.01344
784.0000	0.01331
783.0000	0.01318
782.0000	0.0132
781.0000	0.01317
780.0000	0.01318
779.0000	0.01315
778.0000	0.01314
777.0000	0.01304
776.0000	0.013
775.0000	0.013
774.0000	0.0129
773.0000	0.01289
772.0000	0.01279
771.0000	0.01278
770.0000	0.01277
769.0000	0.01286
768.0000	0.01289
767.0000	0.01289
766.0000	0.01284
765.0000	0.01267
764.0000	0.0127
763.0000	0.01262
762.0000	0.01264
761.0000	0.01257
760.0000	0.01252
759.0000	0.01242
758.0000	0.01237
757.0000	0.01232
756.0000	0.01235
755.0000	0.0123
754.0000	0.01223
753.0000	0.01223
752.0000	0.01224
751.0000	0.01228
750.0000	0.01221
749.0000	0.01218
748.0000	0.01222
747.0000	0.01227
746.0000	0.01229
745.0000	0.01221
744.0000	0.0122
743.0000	0.01218
742.0000	0.01222
741.0000	0.0122
740.0000	0.01216
739.0000	0.01214
738.0000	0.0121
737.0000	0.01207
736.0000	0.01209
735.0000	0.01212
734.0000	0.0121
733.0000	0.0121
732.0000	0.01218
731.0000	0.01235
730.0000	0.01248
729.0000	0.01261
728.0000	0.01271
727.0000	0.01271
726.0000	0.01283
725.0000	0.01293
724.0000	0.01307
723.0000	0.01319
722.0000	0.01334
721.0000	0.01352
720.0000	0.01377
719.0000	0.01404
718.0000	0.01426
717.0000	0.01447
716.0000	0.01466
715.0000	0.01508
714.0000	0.01552
713.0000	0.01603
712.0000	0.01655
711.0000	0.0172
710.0000	0.01789
709.0000	0.01877
708.0000	0.01967
707.0000	0.02064
706.0000	0.02174
705.0000	0.02305
704.0000	0.02452
703.0000	0.02608
702.0000	0.0278
701.0000	0.02976
700.0000	0.03195
699.0000	0.0343
698.0000	0.03699
697.0000	0.04
696.0000	0.04342
695.0000	0.04721
694.0000	0.05132
693.0000	0.05591
692.0000	0.06095
691.0000	0.06649
690.0000	0.07256
689.0000	0.0792
688.0000	0.08647
687.0000	0.09437
686.0000	0.10285
685.0000	0.1119
684.0000	0.12149
683.0000	0.1316
682.0000	0.14216
681.0000	0.15316
680.0000	0.16459
679.0000	0.17631
678.0000	0.18802
677.0000	0.19954
676.0000	0.21087
675.0000	0.22186
674.0000	0.2325
673.0000	0.24245
672.0000	0.25172
671.0000	0.26019
670.0000	0.26785
669.0000	0.27463
668.0000	0.28054
667.0000	0.28556
666.0000	0.28973
665.0000	0.29302
664.0000	0.2956
663.0000	0.29747
662.0000	0.29878
661.0000	0.2995
660.0000	0.29976
659.0000	0.29949
658.0000	0.29877
657.0000	0.29766
656.0000	0.29614
655.0000	0.29437
654.0000	0.29219
653.0000	0.28963
652.0000	0.28668
651.0000	0.28338
650.0000	0.27985
649.0000	0.27609
648.0000	0.27217
647.0000	0.26801
646.0000	0.26366
645.0000	0.25925
644.0000	0.2548
643.0000	0.25032
642.0000	0.24593
641.0000	0.2415
640.0000	0.23725
639.0000	0.23305
638.0000	0.22906
637.0000	0.22509
636.0000	0.22133
635.0000	0.21767
634.0000	0.2142
633.0000	0.21089
632.0000	0.20778
631.0000	0.20475
630.0000	0.20185
629.0000	0.1991
628.0000	0.19664
627.0000	0.19439
626.0000	0.19234
625.0000	0.19035
624.0000	0.18858
623.0000	0.18695
622.0000	0.18543
621.0000	0.18393
620.0000	0.18253
619.0000	0.18119
618.0000	0.17987
617.0000	0.17849
616.0000	0.17712
615.0000	0.17563
614.0000	0.17407
613.0000	0.1725
612.0000	0.1708
611.0000	0.16908
610.0000	0.16719
609.0000	0.16512
608.0000	0.1629
607.0000	0.16057
606.0000	0.15807
605.0000	0.15548
604.0000	0.15274
603.0000	0.14988
602.0000	0.14687
601.0000	0.14386
600.0000	0.14075
599.0000	0.13764
598.0000	0.13447
597.0000	0.13125
596.0000	0.12799
595.0000	0.12472
594.0000	0.12157
593.0000	0.1185
592.0000	0.11541
591.0000	0.11232
590.0000	0.10925
589.0000	0.10624
588.0000	0.10332
587.0000	0.10044
586.0000	0.09771
585.0000	0.09502
584.0000	0.09237
583.0000	0.08986
582.0000	0.08736
581.0000	0.08505
580.0000	0.08271
579.0000	0.08058
578.0000	0.07844
577.0000	0.07641
576.0000	0.07434
575.0000	0.07244
574.0000	0.07059
573.0000	0.06882
572.0000	0.06714
571.0000	0.06555
570.0000	0.06404
569.0000	0.0626
568.0000	0.06115
567.0000	0.05975
566.0000	0.05846
565.0000	0.05713
564.0000	0.05584
563.0000	0.05449
562.0000	0.05322
561.0000	0.05205
560.0000	0.0509
559.0000	0.04976
558.0000	0.04869
557.0000	0.04765
556.0000	0.04664
555.0000	0.04557
554.0000	0.0446
553.0000	0.04364
552.0000	0.04272
551.0000	0.04177
550.0000	0.04081
549.0000	0.03986
548.0000	0.03902
547.0000	0.03821
546.0000	0.0375
545.0000	0.03679
544.0000	0.03614
543.0000	0.03545
542.0000	0.03473
541.0000	0.03401
540.0000	0.03335
539.0000	0.03276
538.0000	0.03228
537.0000	0.03187
536.0000	0.03136
535.0000	0.03084
534.0000	0.03041
533.0000	0.03003
532.0000	0.02976
531.0000	0.02935
530.0000	0.02896
529.0000	0.02857
528.0000	0.02827
527.0000	0.02797
526.0000	0.02773
525.0000	0.02754
524.0000	0.02747
523.0000	0.02736
522.0000	0.02718
521.0000	0.02697
520.0000	0.02668
519.0000	0.02651
518.0000	0.02636
517.0000	0.02625
516.0000	0.02623
515.0000	0.0262
514.0000	0.0261
513.0000	0.02594
512.0000	0.02585
511.0000	0.0258
510.0000	0.02581
509.0000	0.02581
508.0000	0.0257
507.0000	0.02567
506.0000	0.02557
505.0000	0.02552
504.0000	0.02542
503.0000	0.02541
502.0000	0.02541
501.0000	0.0254
500.0000	0.02524
499.0000	0.02512
498.0000	0.02497
497.0000	0.02484
496.0000	0.02479
495.0000	0.02469
494.0000	0.02463
493.0000	0.02445
492.0000	0.02427
491.0000	0.02408
490.0000	0.0239
489.0000	0.02372
488.0000	0.02352
487.0000	0.02334
486.0000	0.02308
485.0000	0.02286
484.0000	0.0226
483.0000	0.02243
482.0000	0.0222
481.0000	0.02196
480.0000	0.02165
479.0000	0.02141
478.0000	0.02119
477.0000	0.02103
476.0000	0.02087
475.0000	0.02063
474.0000	0.02036
473.0000	0.02004
472.0000	0.01976
471.0000	0.01951
470.0000	0.0193
469.0000	0.01916
468.0000	0.01893
467.0000	0.01868
466.0000	0.0184
465.0000	0.01817
464.0000	0.01789
463.0000	0.01769
462.0000	0.01747
461.0000	0.0173
460.0000	0.01709
459.0000	0.01686
458.0000	0.01657
457.0000	0.01633
456.0000	0.01609
455.0000	0.01579
454.0000	0.01556
453.0000	0.01538
452.0000	0.01515
451.0000	0.01492
450.0000	0.01473
449.0000	0.01459
448.0000	0.01439
447.0000	0.01414
446.0000	0.01389
445.0000	0.01366
444.0000	0.01346
443.0000	0.01332
442.0000	0.01317
441.0000	0.01299
440.0000	0.01271
439.0000	0.01244
438.0000	0.01225
437.0000	0.0122
436.0000	0.0121
435.0000	0.01201
434.0000	0.01184
433.0000	0.01165
432.0000	0.01148
431.0000	0.01135
430.0000	0.0113
429.0000	0.01126
428.0000	0.01118
427.0000	0.011
426.0000	0.01086
425.0000	0.01071
424.0000	0.01065
423.0000	0.01059
422.0000	0.01051
421.0000	0.0104
420.0000	0.01015
419.0000	0.01009
418.0000	0.00999
417.0000	0.01003
416.0000	0.01004
415.0000	0.01015
414.0000	0.01014
413.0000	0.01018
412.0000	0.01015
411.0000	0.01029
410.0000	0.01035
409.0000	0.01045
408.0000	0.01046
407.0000	0.01058
406.0000	0.0107
405.0000	0.01094
404.0000	0.01122
403.0000	0.01144
402.0000	0.01175
401.0000	0.01188
400.0000	0.01212
399.0000	0.01234
398.0000	0.01255
397.0000	0.01271
396.0000	0.01274
395.0000	0.0127
394.0000	0.01279
393.0000	0.01291
392.0000	0.01297
391.0000	0.01299
390.0000	0.01308
389.0000	0.0132
388.0000	0.0133
387.0000	0.01316
386.0000	0.01311
385.0000	0.0131
384.0000	0.01319
383.0000	0.01324
382.0000	0.01334
381.0000	0.01344
380.0000	0.01345
379.0000	0.0134
378.0000	0.01348
377.0000	0.01363
376.0000	0.01386
375.0000	0.01396
374.0000	0.01407
373.0000	0.01414
372.0000	0.01424
371.0000	0.0145
370.0000	0.01479
369.0000	0.01498
368.0000	0.01515
367.0000	0.01538
366.0000	0.0156
365.0000	0.01586
364.0000	0.01618
363.0000	0.01647
362.0000	0.01694
361.0000	0.0175
360.0000	0.01803
359.0000	0.01851
358.0000	0.0191
357.0000	0.01979
356.0000	0.02044
355.0000	0.02123
354.0000	0.02199
353.0000	0.02285
352.0000	0.02368
351.0000	0.02443
350.0000	0.02533
349.0000	0.02629
348.0000	0.02738
347.0000	0.02855
346.0000	0.0298
345.0000	0.03106
344.0000	0.03251
343.0000	0.03397
342.0000	0.03555
341.0000	0.03725
340.0000	0.03967
339.0000	0.04114
338.0000	0.04282
337.0000	0.04496
336.0000	0.04723
335.0000	0.04945
334.0000	0.0518
333.0000	0.054
332.0000	0.05611
331.0000	0.05808
330.0000	0.05994
329.0000	0.06167
328.0000	0.06299
327.0000	0.06425
326.0000	0.06534
325.0000	0.06641
324.0000	0.06725
323.0000	0.06783
322.0000	0.0685
321.0000	0.06913
320.0000	0.0699
319.0000	0.07074
318.0000	0.07155
317.0000	0.07241
316.0000	0.07348
315.0000	0.07469
314.0000	0.07623
313.0000	0.0776
312.0000	0.07959
311.0000	0.08204
310.0000	0.08526
309.0000	0.08912
308.0000	0.09359
307.0000	0.09905
306.0000	0.1052
305.0000	0.11229
304.0000	0.11995
303.0000	0.12831
302.0000	0.13723
301.0000	0.14685
300.0000	0.15662
299.0000	0.16664
298.0000	0.17644
297.0000	0.18592
296.0000	0.1948
295.0000	0.2026
294.0000	0.20903
293.0000	0.21363
292.0000	0.21668
291.0000	0.21773
290.0000	0.21711
289.0000	0.21513
288.0000	0.21202
287.0000	0.20854
286.0000	0.20445
285.0000	0.20077
284.0000	0.19727
283.0000	0.194
282.0000	0.19089
281.0000	0.18806
280.0000	0.18542
279.0000	0.18312
278.0000	0.18104
277.0000	0.17953
276.0000	0.17829
275.0000	0.17772
274.0000	0.17753
273.0000	0.17791
272.0000	0.1783
271.0000	0.1787
270.0000	0.17935
269.0000	0.17956
268.0000	0.17969
267.0000	0.17932
266.0000	0.179
265.0000	0.17844
264.0000	0.17791
263.0000	0.17694
262.0000	0.17573
261.0000	0.17439
260.0000	0.17299
259.0000	0.17158
258.0000	0.17025
257.0000	0.16899
256.0000	0.16783
255.0000	0.16676
254.0000	0.1657
253.0000	0.16533
252.0000	0.16512
251.0000	0.16532
250.0000	0.16558
249.0000	0.16546
248.0000	0.16476
247.0000	0.1632
246.0000	0.16093
245.0000	0.15778
244.0000	0.15402
243.0000	0.14952
242.0000	0.14482
241.0000	0.14001
240.0000	0.1355
239.0000	0.13135
238.0000	0.12765
237.0000	0.12425
236.0000	0.1213
235.0000	0.11898
234.0000	0.11722
233.0000	0.11645
232.0000	0.11645
231.0000	0.11743
230.0000	0.11938
229.0000	0.12189
228.0000	0.12522
227.0000	0.12905
226.0000	0.13411
225.0000	0.14016
224.0000	0.14739
223.0000	0.15608
222.0000	0.16673
221.0000	0.17958
220.0000	0.19464
219.0000	0.21174
218.0000	0.22979
217.0000	0.24798
216.0000	0.26474
215.0000	0.28049
214.0000	0.29473
213.0000	0.3085
212.0000	0.32155
211.0000	0.33379
210.0000	0.34459
209.0000	0.35458
208.0000	0.36405
207.0000	0.37383
206.0000	0.38372
205.0000	0.39348
204.0000	0.40342
203.0000	0.41237
202.0000	0.41964
201.0000	0.42452
200.0000	0.42688
199.0000	0.42731
198.0000	0.42592
197.0000	0.42331
196.0000	0.41896
195.0000	0.41317
194.0000	0.40434
193.0000	0.39326
192.0000	0.37656
191.0000	0.35412
190.0000	0.32141
