TITLE	
DATA TYPE	
ORIGIN	JASCO
OWNER	
DATE	19/08/31
TIME	15:16:36
SPECTROMETER/DATA SYSTEM	JASCO Corp., V-570, Rev. 1.00
RESOLUTION	
DELTAX	-1
XUNITS	NANOMETERS
YUNITS	ABSORBANCE
FIRSTX	840.0000
LASTX	190.0000
NPOINTS	651
FIRSTY	0.02012
MAXY	1.13148
MINY	0.02004
XYDATA
840.0000	0.02012
839.0000	0.02018
838.0000	0.02004
837.0000	0.0201
836.0000	0.02019
835.0000	0.02035
834.0000	0.02032
833.0000	0.02034
832.0000	0.02039
831.0000	0.02046
830.0000	0.02057
829.0000	0.02061
828.0000	0.02056
827.0000	0.0206
826.0000	0.02067
825.0000	0.02066
824.0000	0.02072
823.0000	0.02075
822.0000	0.02076
821.0000	0.02077
820.0000	0.02082
819.0000	0.02086
818.0000	0.02095
817.0000	0.02102
816.0000	0.02097
815.0000	0.021
814.0000	0.021
813.0000	0.02094
812.0000	0.02096
811.0000	0.021
810.0000	0.02101
809.0000	0.0211
808.0000	0.0212
807.0000	0.02132
806.0000	0.02145
805.0000	0.02161
804.0000	0.02162
803.0000	0.02168
802.0000	0.02162
801.0000	0.02169
800.0000	0.02174
799.0000	0.02175
798.0000	0.02176
797.0000	0.02173
796.0000	0.02169
795.0000	0.02175
794.0000	0.02182
793.0000	0.02197
792.0000	0.02195
791.0000	0.02208
790.0000	0.02212
789.0000	0.02214
788.0000	0.02216
787.0000	0.0222
786.0000	0.02231
785.0000	0.02246
784.0000	0.02263
783.0000	0.02262
782.0000	0.02274
781.0000	0.02282
780.0000	0.02292
779.0000	0.02299
778.0000	0.02306
777.0000	0.02318
776.0000	0.0232
775.0000	0.02322
774.0000	0.02325
773.0000	0.02341
772.0000	0.02356
771.0000	0.02366
770.0000	0.02368
769.0000	0.02367
768.0000	0.02371
767.0000	0.02384
766.0000	0.02398
765.0000	0.02411
764.0000	0.02415
763.0000	0.02431
762.0000	0.02446
761.0000	0.02456
760.0000	0.02468
759.0000	0.02482
758.0000	0.02499
757.0000	0.02518
756.0000	0.02537
755.0000	0.02548
754.0000	0.02557
753.0000	0.02576
752.0000	0.02588
751.0000	0.02611
750.0000	0.02624
749.0000	0.02643
748.0000	0.02654
747.0000	0.02677
746.0000	0.02693
745.0000	0.02712
744.0000	0.02733
743.0000	0.02756
742.0000	0.0279
741.0000	0.02811
740.0000	0.02855
739.0000	0.02881
738.0000	0.02909
737.0000	0.02942
736.0000	0.02973
735.0000	0.03
734.0000	0.03033
733.0000	0.03083
732.0000	0.03133
731.0000	0.03181
730.0000	0.03228
729.0000	0.03277
728.0000	0.03335
727.0000	0.03394
726.0000	0.03461
725.0000	0.0353
724.0000	0.03603
723.0000	0.03685
722.0000	0.03778
721.0000	0.03892
720.0000	0.04001
719.0000	0.04127
718.0000	0.04258
717.0000	0.04411
716.0000	0.04575
715.0000	0.04762
714.0000	0.04967
713.0000	0.05194
712.0000	0.05442
711.0000	0.05717
710.0000	0.06026
709.0000	0.06366
708.0000	0.06751
707.0000	0.07174
706.0000	0.07648
705.0000	0.08177
704.0000	0.08777
703.0000	0.09451
702.0000	0.10197
701.0000	0.11026
700.0000	0.11952
699.0000	0.1299
698.0000	0.14134
697.0000	0.15414
696.0000	0.16826
695.0000	0.18392
694.0000	0.2012
693.0000	0.22023
692.0000	0.2412
691.0000	0.26428
690.0000	0.28956
689.0000	0.31712
688.0000	0.34702
687.0000	0.37939
686.0000	0.41435
685.0000	0.45181
684.0000	0.49157
683.0000	0.53343
682.0000	0.57707
681.0000	0.62234
680.0000	0.66894
679.0000	0.71627
678.0000	0.76345
677.0000	0.80966
676.0000	0.85446
675.0000	0.89735
674.0000	0.93776
673.0000	0.97499
672.0000	1.00874
671.0000	1.03861
670.0000	1.06435
669.0000	1.08581
668.0000	1.1029
667.0000	1.1158
666.0000	1.12462
665.0000	1.12975
664.0000	1.13148
663.0000	1.1301
662.0000	1.1262
661.0000	1.11996
660.0000	1.11192
659.0000	1.10206
658.0000	1.09075
657.0000	1.07824
656.0000	1.06471
655.0000	1.05031
654.0000	1.03502
653.0000	1.01901
652.0000	1.00223
651.0000	0.98486
650.0000	0.96687
649.0000	0.94869
648.0000	0.9301
647.0000	0.91131
646.0000	0.89247
645.0000	0.8737
644.0000	0.8552
643.0000	0.83704
642.0000	0.81932
641.0000	0.80221
640.0000	0.78586
639.0000	0.7703
638.0000	0.75558
637.0000	0.74174
636.0000	0.72875
635.0000	0.71665
634.0000	0.70556
633.0000	0.69541
632.0000	0.68623
631.0000	0.67794
630.0000	0.67057
629.0000	0.66415
628.0000	0.65859
627.0000	0.65387
626.0000	0.6498
625.0000	0.64644
624.0000	0.64373
623.0000	0.64165
622.0000	0.63986
621.0000	0.63845
620.0000	0.6372
619.0000	0.63604
618.0000	0.63488
617.0000	0.63345
616.0000	0.63168
615.0000	0.62945
614.0000	0.62672
613.0000	0.62322
612.0000	0.61895
611.0000	0.61385
610.0000	0.60787
609.0000	0.60097
608.0000	0.59314
607.0000	0.5844
606.0000	0.57481
605.0000	0.56451
604.0000	0.55333
603.0000	0.54156
602.0000	0.52928
601.0000	0.51673
600.0000	0.50386
599.0000	0.49071
598.0000	0.47748
597.0000	0.46421
596.0000	0.45099
595.0000	0.43785
594.0000	0.42485
593.0000	0.41204
592.0000	0.3995
591.0000	0.38731
590.0000	0.37549
589.0000	0.36393
588.0000	0.35278
587.0000	0.34196
586.0000	0.33153
585.0000	0.32143
584.0000	0.31164
583.0000	0.30223
582.0000	0.29326
581.0000	0.28461
580.0000	0.27641
579.0000	0.26855
578.0000	0.26098
577.0000	0.25388
576.0000	0.24702
575.0000	0.24051
574.0000	0.23424
573.0000	0.22823
572.0000	0.22258
571.0000	0.2171
570.0000	0.21175
569.0000	0.20653
568.0000	0.20155
567.0000	0.19675
566.0000	0.19208
565.0000	0.18752
564.0000	0.18309
563.0000	0.17886
562.0000	0.17468
561.0000	0.17055
560.0000	0.16645
559.0000	0.16239
558.0000	0.15835
557.0000	0.15441
556.0000	0.15044
555.0000	0.14669
554.0000	0.14299
553.0000	0.1394
552.0000	0.13589
551.0000	0.13248
550.0000	0.12917
549.0000	0.12597
548.0000	0.12279
547.0000	0.11971
546.0000	0.11676
545.0000	0.11399
544.0000	0.11139
543.0000	0.10886
542.0000	0.10642
541.0000	0.10408
540.0000	0.10193
539.0000	0.09997
538.0000	0.09807
537.0000	0.09626
536.0000	0.09454
535.0000	0.09283
534.0000	0.09127
533.0000	0.0898
532.0000	0.08851
531.0000	0.08724
530.0000	0.08608
529.0000	0.08507
528.0000	0.08414
527.0000	0.08328
526.0000	0.0824
525.0000	0.08165
524.0000	0.0809
523.0000	0.08022
522.0000	0.07959
521.0000	0.07909
520.0000	0.07862
519.0000	0.07837
518.0000	0.07813
517.0000	0.07792
516.0000	0.07768
515.0000	0.07748
514.0000	0.07732
513.0000	0.07712
512.0000	0.07705
511.0000	0.07702
510.0000	0.07705
509.0000	0.07714
508.0000	0.07715
507.0000	0.07724
506.0000	0.0773
505.0000	0.07731
504.0000	0.07727
503.0000	0.0772
502.0000	0.0771
501.0000	0.07704
500.0000	0.07699
499.0000	0.07696
498.0000	0.07693
497.0000	0.0768
496.0000	0.07657
495.0000	0.07623
494.0000	0.0759
493.0000	0.07556
492.0000	0.07525
491.0000	0.07496
490.0000	0.07464
489.0000	0.0742
488.0000	0.0737
487.0000	0.07317
486.0000	0.07274
485.0000	0.07221
484.0000	0.07168
483.0000	0.07111
482.0000	0.0706
481.0000	0.07013
480.0000	0.06964
479.0000	0.0691
478.0000	0.06853
477.0000	0.06795
476.0000	0.06745
475.0000	0.06692
474.0000	0.06641
473.0000	0.066
472.0000	0.06548
471.0000	0.06501
470.0000	0.06451
469.0000	0.06402
468.0000	0.06355
467.0000	0.06306
466.0000	0.06262
465.0000	0.0622
464.0000	0.06174
463.0000	0.06138
462.0000	0.06087
461.0000	0.0604
460.0000	0.05988
459.0000	0.05945
458.0000	0.05904
457.0000	0.05859
456.0000	0.0581
455.0000	0.05772
454.0000	0.05728
453.0000	0.05684
452.0000	0.05635
451.0000	0.05599
450.0000	0.05553
449.0000	0.05518
448.0000	0.05481
447.0000	0.05454
446.0000	0.05419
445.0000	0.05388
444.0000	0.05349
443.0000	0.05318
442.0000	0.05277
441.0000	0.05259
440.0000	0.05233
439.0000	0.05213
438.0000	0.05185
437.0000	0.0516
436.0000	0.05134
435.0000	0.05115
434.0000	0.05099
433.0000	0.05087
432.0000	0.05071
431.0000	0.05056
430.0000	0.05043
429.0000	0.05032
428.0000	0.05022
427.0000	0.05014
426.0000	0.05011
425.0000	0.05013
424.0000	0.05004
423.0000	0.04991
422.0000	0.04993
421.0000	0.04993
420.0000	0.05027
419.0000	0.05038
418.0000	0.05047
417.0000	0.05061
416.0000	0.05093
415.0000	0.05125
414.0000	0.05167
413.0000	0.0521
412.0000	0.05256
411.0000	0.05304
410.0000	0.05369
409.0000	0.05445
408.0000	0.05525
407.0000	0.05604
406.0000	0.05689
405.0000	0.05774
404.0000	0.0587
403.0000	0.05967
402.0000	0.06054
401.0000	0.06142
400.0000	0.06227
399.0000	0.06308
398.0000	0.06367
397.0000	0.06414
396.0000	0.06441
395.0000	0.0648
394.0000	0.06508
393.0000	0.0653
392.0000	0.06543
391.0000	0.06546
390.0000	0.06549
389.0000	0.06555
388.0000	0.06562
387.0000	0.0656
386.0000	0.06554
385.0000	0.06551
384.0000	0.06555
383.0000	0.06557
382.0000	0.06555
381.0000	0.06552
380.0000	0.06563
379.0000	0.06575
378.0000	0.06596
377.0000	0.06607
376.0000	0.06613
375.0000	0.06634
374.0000	0.06654
373.0000	0.06674
372.0000	0.06691
371.0000	0.06708
370.0000	0.06756
369.0000	0.06794
368.0000	0.0682
367.0000	0.06867
366.0000	0.06904
365.0000	0.06969
364.0000	0.07022
363.0000	0.07092
362.0000	0.07166
361.0000	0.07253
360.0000	0.07342
359.0000	0.07433
358.0000	0.07543
357.0000	0.07653
356.0000	0.07773
355.0000	0.07912
354.0000	0.08045
353.0000	0.08173
352.0000	0.08301
351.0000	0.08451
350.0000	0.08619
349.0000	0.0879
348.0000	0.08974
347.0000	0.09176
346.0000	0.09406
345.0000	0.09655
344.0000	0.09937
343.0000	0.10251
342.0000	0.10608
341.0000	0.11026
340.0000	0.11663
339.0000	0.12074
338.0000	0.1254
337.0000	0.13112
336.0000	0.13722
335.0000	0.14365
334.0000	0.1499
333.0000	0.1562
332.0000	0.1622
331.0000	0.16752
330.0000	0.17224
329.0000	0.17625
328.0000	0.17982
327.0000	0.18282
326.0000	0.18505
325.0000	0.1871
324.0000	0.189
323.0000	0.19058
322.0000	0.19211
321.0000	0.19421
320.0000	0.19666
319.0000	0.19934
318.0000	0.2021
317.0000	0.20525
316.0000	0.20901
315.0000	0.21336
314.0000	0.21832
313.0000	0.22452
312.0000	0.23202
311.0000	0.24146
310.0000	0.25308
309.0000	0.26747
308.0000	0.2844
307.0000	0.30428
306.0000	0.32703
305.0000	0.35224
304.0000	0.3798
303.0000	0.40933
302.0000	0.44063
301.0000	0.47321
300.0000	0.50646
299.0000	0.53924
298.0000	0.57113
297.0000	0.60042
296.0000	0.62644
295.0000	0.64817
294.0000	0.66416
293.0000	0.67343
292.0000	0.67588
291.0000	0.67126
290.0000	0.66036
289.0000	0.64442
288.0000	0.62479
287.0000	0.60363
286.0000	0.58146
285.0000	0.55944
284.0000	0.53769
283.0000	0.51616
282.0000	0.49504
281.0000	0.47423
280.0000	0.45408
279.0000	0.43474
278.0000	0.41621
277.0000	0.39874
276.0000	0.38257
275.0000	0.36775
274.0000	0.35448
273.0000	0.3422
272.0000	0.33112
271.0000	0.32064
270.0000	0.31036
269.0000	0.30018
268.0000	0.29016
267.0000	0.28066
266.0000	0.27161
265.0000	0.26374
264.0000	0.25721
263.0000	0.25221
262.0000	0.24863
261.0000	0.24664
260.0000	0.24596
259.0000	0.24672
258.0000	0.24876
257.0000	0.25241
256.0000	0.25774
255.0000	0.26468
254.0000	0.27345
253.0000	0.28414
252.0000	0.29642
251.0000	0.30963
250.0000	0.32293
249.0000	0.33485
248.0000	0.34406
247.0000	0.3493
246.0000	0.35019
245.0000	0.34709
244.0000	0.34058
243.0000	0.33177
242.0000	0.32144
241.0000	0.31041
240.0000	0.29888
239.0000	0.28743
238.0000	0.27646
237.0000	0.26601
236.0000	0.25671
235.0000	0.24883
234.0000	0.24222
233.0000	0.237
232.0000	0.23285
231.0000	0.22941
230.0000	0.22699
229.0000	0.2249
228.0000	0.22339
227.0000	0.22198
226.0000	0.22057
225.0000	0.2192
224.0000	0.21815
223.0000	0.2174
222.0000	0.21727
221.0000	0.21773
220.0000	0.21861
219.0000	0.21995
218.0000	0.22149
217.0000	0.22284
216.0000	0.22466
215.0000	0.22637
214.0000	0.22871
213.0000	0.23139
212.0000	0.23467
211.0000	0.23832
210.0000	0.24235
209.0000	0.24714
208.0000	0.25269
207.0000	0.25872
206.0000	0.26597
205.0000	0.27436
204.0000	0.28449
203.0000	0.29573
202.0000	0.30678
201.0000	0.31682
200.0000	0.32505
199.0000	0.33151
198.0000	0.33709
197.0000	0.34169
196.0000	0.34609
195.0000	0.35043
194.0000	0.35348
193.0000	0.35633
192.0000	0.35566
191.0000	0.3505
190.0000	0.3387
