TITLE	
DATA TYPE	
ORIGIN	JASCO
OWNER	
DATE	19/08/31
TIME	16:04:31
SPECTROMETER/DATA SYSTEM	JASCO Corp., V-570, Rev. 1.00
RESOLUTION	
DELTAX	-1
XUNITS	NANOMETERS
YUNITS	ABSORBANCE
FIRSTX	840.0000
LASTX	190.0000
NPOINTS	651
FIRSTY	0.01946
MAXY	0.63053
MINY	0.01941
XYDATA
840.0000	0.01946
839.0000	0.01949
838.0000	0.01951
837.0000	0.01945
836.0000	0.01951
835.0000	0.01949
834.0000	0.01952
833.0000	0.01953
832.0000	0.01955
831.0000	0.01971
830.0000	0.01969
829.0000	0.01976
828.0000	0.01964
827.0000	0.01959
826.0000	0.01946
825.0000	0.01948
824.0000	0.01949
823.0000	0.01951
822.0000	0.01941
821.0000	0.01946
820.0000	0.01947
819.0000	0.01948
818.0000	0.01957
817.0000	0.01963
816.0000	0.01972
815.0000	0.01973
814.0000	0.01971
813.0000	0.01963
812.0000	0.01967
811.0000	0.01968
810.0000	0.01967
809.0000	0.01973
808.0000	0.01989
807.0000	0.01997
806.0000	0.02008
805.0000	0.02009
804.0000	0.0201
803.0000	0.02009
802.0000	0.02009
801.0000	0.0202
800.0000	0.02029
799.0000	0.02033
798.0000	0.02039
797.0000	0.02037
796.0000	0.0203
795.0000	0.02041
794.0000	0.02046
793.0000	0.02058
792.0000	0.02054
791.0000	0.02062
790.0000	0.02066
789.0000	0.02075
788.0000	0.02084
787.0000	0.02093
786.0000	0.02097
785.0000	0.02122
784.0000	0.02132
783.0000	0.02141
782.0000	0.02148
781.0000	0.02149
780.0000	0.02158
779.0000	0.02163
778.0000	0.02169
777.0000	0.02178
776.0000	0.02191
775.0000	0.02193
774.0000	0.02199
773.0000	0.02204
772.0000	0.02224
771.0000	0.02236
770.0000	0.02247
769.0000	0.02246
768.0000	0.02251
767.0000	0.02268
766.0000	0.02282
765.0000	0.02293
764.0000	0.02296
763.0000	0.02314
762.0000	0.0233
761.0000	0.02338
760.0000	0.02348
759.0000	0.02357
758.0000	0.02365
757.0000	0.02377
756.0000	0.024
755.0000	0.02411
754.0000	0.02429
753.0000	0.02443
752.0000	0.02458
751.0000	0.02478
750.0000	0.02492
749.0000	0.02502
748.0000	0.02507
747.0000	0.02521
746.0000	0.02535
745.0000	0.0255
744.0000	0.02565
743.0000	0.0258
742.0000	0.02604
741.0000	0.02621
740.0000	0.02642
739.0000	0.02652
738.0000	0.02676
737.0000	0.02696
736.0000	0.02715
735.0000	0.0273
734.0000	0.02744
733.0000	0.02772
732.0000	0.02791
731.0000	0.02821
730.0000	0.0284
729.0000	0.02867
728.0000	0.02893
727.0000	0.0293
726.0000	0.02965
725.0000	0.03
724.0000	0.03042
723.0000	0.03088
722.0000	0.03146
721.0000	0.03211
720.0000	0.03275
719.0000	0.03347
718.0000	0.03423
717.0000	0.03512
716.0000	0.03612
715.0000	0.03725
714.0000	0.0385
713.0000	0.03982
712.0000	0.04124
711.0000	0.04283
710.0000	0.04462
709.0000	0.04661
708.0000	0.04884
707.0000	0.05129
706.0000	0.05405
705.0000	0.0571
704.0000	0.06056
703.0000	0.0644
702.0000	0.06865
701.0000	0.07334
700.0000	0.07861
699.0000	0.08447
698.0000	0.09086
697.0000	0.09796
696.0000	0.10577
695.0000	0.11441
694.0000	0.1239
693.0000	0.13428
692.0000	0.14568
691.0000	0.15815
690.0000	0.17177
689.0000	0.18656
688.0000	0.20257
687.0000	0.2199
686.0000	0.23847
685.0000	0.25835
684.0000	0.27932
683.0000	0.3013
682.0000	0.32419
681.0000	0.3479
680.0000	0.3723
679.0000	0.39702
678.0000	0.42164
677.0000	0.44581
676.0000	0.46925
675.0000	0.49174
674.0000	0.5131
673.0000	0.53297
672.0000	0.55124
671.0000	0.56771
670.0000	0.58227
669.0000	0.59481
668.0000	0.60533
667.0000	0.61383
666.0000	0.62047
665.0000	0.6253
664.0000	0.62853
663.0000	0.63018
662.0000	0.63053
661.0000	0.62963
660.0000	0.62762
659.0000	0.6247
658.0000	0.62087
657.0000	0.61624
656.0000	0.61091
655.0000	0.60487
654.0000	0.59827
653.0000	0.59102
652.0000	0.58321
651.0000	0.57488
650.0000	0.56618
649.0000	0.5572
648.0000	0.54798
647.0000	0.53845
646.0000	0.52885
645.0000	0.51904
644.0000	0.50932
643.0000	0.49963
642.0000	0.4901
641.0000	0.48081
640.0000	0.47179
639.0000	0.46311
638.0000	0.45468
637.0000	0.44666
636.0000	0.43901
635.0000	0.43173
634.0000	0.42489
633.0000	0.41849
632.0000	0.41258
631.0000	0.40698
630.0000	0.4018
629.0000	0.39707
628.0000	0.39275
627.0000	0.38889
626.0000	0.38527
625.0000	0.38201
624.0000	0.37905
623.0000	0.3764
622.0000	0.37387
621.0000	0.37159
620.0000	0.36941
619.0000	0.36729
618.0000	0.36526
617.0000	0.36314
616.0000	0.3609
615.0000	0.35848
614.0000	0.3559
613.0000	0.35304
612.0000	0.34986
611.0000	0.34639
610.0000	0.34258
609.0000	0.33846
608.0000	0.33395
607.0000	0.32916
606.0000	0.32406
605.0000	0.31869
604.0000	0.31296
603.0000	0.30694
602.0000	0.30074
601.0000	0.29442
600.0000	0.28801
599.0000	0.28144
598.0000	0.27487
597.0000	0.26819
596.0000	0.26157
595.0000	0.25495
594.0000	0.24842
593.0000	0.24195
592.0000	0.2356
591.0000	0.22938
590.0000	0.22331
589.0000	0.21734
588.0000	0.21155
587.0000	0.20592
586.0000	0.20049
585.0000	0.19513
584.0000	0.18996
583.0000	0.18496
582.0000	0.18021
581.0000	0.17563
580.0000	0.1712
579.0000	0.16695
578.0000	0.16289
577.0000	0.15907
576.0000	0.15537
575.0000	0.1519
574.0000	0.14845
573.0000	0.14519
572.0000	0.14212
571.0000	0.13912
570.0000	0.13616
569.0000	0.13326
568.0000	0.13051
567.0000	0.12788
566.0000	0.12538
565.0000	0.12292
564.0000	0.12054
563.0000	0.11828
562.0000	0.11603
561.0000	0.1139
560.0000	0.11175
559.0000	0.10963
558.0000	0.10751
557.0000	0.10539
556.0000	0.10335
555.0000	0.10144
554.0000	0.09957
553.0000	0.09778
552.0000	0.09602
551.0000	0.09437
550.0000	0.09268
549.0000	0.09113
548.0000	0.08952
547.0000	0.08801
546.0000	0.08651
545.0000	0.08514
544.0000	0.08383
543.0000	0.08261
542.0000	0.08137
541.0000	0.0803
540.0000	0.07934
539.0000	0.07839
538.0000	0.07747
537.0000	0.07661
536.0000	0.07578
535.0000	0.07492
534.0000	0.07414
533.0000	0.07339
532.0000	0.07281
531.0000	0.07226
530.0000	0.0717
529.0000	0.0713
528.0000	0.07092
527.0000	0.07056
526.0000	0.07019
525.0000	0.06978
524.0000	0.06941
523.0000	0.06903
522.0000	0.06874
521.0000	0.06853
520.0000	0.06836
519.0000	0.06829
518.0000	0.06827
517.0000	0.06826
516.0000	0.06821
515.0000	0.06806
514.0000	0.068
513.0000	0.06787
512.0000	0.06791
511.0000	0.06793
510.0000	0.06797
509.0000	0.06805
508.0000	0.0681
507.0000	0.06819
506.0000	0.06829
505.0000	0.06833
504.0000	0.06834
503.0000	0.06824
502.0000	0.06816
501.0000	0.06815
500.0000	0.06811
499.0000	0.06815
498.0000	0.06819
497.0000	0.06813
496.0000	0.06805
495.0000	0.06785
494.0000	0.06765
493.0000	0.06744
492.0000	0.06726
491.0000	0.06709
490.0000	0.06694
489.0000	0.06669
488.0000	0.06648
487.0000	0.06619
486.0000	0.06596
485.0000	0.06563
484.0000	0.06531
483.0000	0.06496
482.0000	0.06466
481.0000	0.06438
480.0000	0.06416
479.0000	0.06387
478.0000	0.06356
477.0000	0.06318
476.0000	0.06285
475.0000	0.06249
474.0000	0.06219
473.0000	0.06189
472.0000	0.0616
471.0000	0.06135
470.0000	0.06106
469.0000	0.06075
468.0000	0.06044
467.0000	0.06014
466.0000	0.05983
465.0000	0.05954
464.0000	0.05924
463.0000	0.05903
462.0000	0.05871
461.0000	0.05848
460.0000	0.05818
459.0000	0.05789
458.0000	0.05762
457.0000	0.0573
456.0000	0.057
455.0000	0.05676
454.0000	0.05653
453.0000	0.05634
452.0000	0.05609
451.0000	0.05595
450.0000	0.05568
449.0000	0.05551
448.0000	0.05533
447.0000	0.05519
446.0000	0.05499
445.0000	0.05477
444.0000	0.05451
443.0000	0.05434
442.0000	0.05417
441.0000	0.05413
440.0000	0.05407
439.0000	0.054
438.0000	0.05388
437.0000	0.05375
436.0000	0.05357
435.0000	0.05351
434.0000	0.05349
433.0000	0.05352
432.0000	0.05347
431.0000	0.05339
430.0000	0.05334
429.0000	0.05332
428.0000	0.05336
427.0000	0.05336
426.0000	0.05344
425.0000	0.0535
424.0000	0.05348
423.0000	0.05354
422.0000	0.05361
421.0000	0.05374
420.0000	0.05406
419.0000	0.05419
418.0000	0.05437
417.0000	0.05458
416.0000	0.05483
415.0000	0.05517
414.0000	0.05539
413.0000	0.05576
412.0000	0.05613
411.0000	0.0565
410.0000	0.057
409.0000	0.05749
408.0000	0.05795
407.0000	0.05846
406.0000	0.05907
405.0000	0.0596
404.0000	0.06027
403.0000	0.06092
402.0000	0.06156
401.0000	0.06226
400.0000	0.06296
399.0000	0.06369
398.0000	0.06425
397.0000	0.06463
396.0000	0.06491
395.0000	0.0653
394.0000	0.06572
393.0000	0.06612
392.0000	0.06634
391.0000	0.06664
390.0000	0.06697
389.0000	0.06727
388.0000	0.06762
387.0000	0.06781
386.0000	0.06801
385.0000	0.06819
384.0000	0.06854
383.0000	0.06887
382.0000	0.06915
381.0000	0.0694
380.0000	0.0697
379.0000	0.07006
378.0000	0.07043
377.0000	0.07095
376.0000	0.07128
375.0000	0.07168
374.0000	0.07196
373.0000	0.07236
372.0000	0.0727
371.0000	0.07318
370.0000	0.07415
369.0000	0.07476
368.0000	0.07535
367.0000	0.07591
366.0000	0.07647
365.0000	0.07711
364.0000	0.07783
363.0000	0.07859
362.0000	0.07933
361.0000	0.08022
360.0000	0.08119
359.0000	0.08225
358.0000	0.08334
357.0000	0.08445
356.0000	0.08556
355.0000	0.08677
354.0000	0.08809
353.0000	0.08944
352.0000	0.09083
351.0000	0.09223
350.0000	0.09375
349.0000	0.09546
348.0000	0.09723
347.0000	0.09908
346.0000	0.10104
345.0000	0.10315
344.0000	0.10554
343.0000	0.10813
342.0000	0.11093
341.0000	0.11399
340.0000	0.11886
339.0000	0.12205
338.0000	0.12548
337.0000	0.12926
336.0000	0.13338
335.0000	0.13739
334.0000	0.14155
333.0000	0.14542
332.0000	0.14924
331.0000	0.15273
330.0000	0.156
329.0000	0.15873
328.0000	0.16121
327.0000	0.1636
326.0000	0.16544
325.0000	0.16709
324.0000	0.16861
323.0000	0.16987
322.0000	0.17107
321.0000	0.17247
320.0000	0.17406
319.0000	0.17586
318.0000	0.17764
317.0000	0.17955
316.0000	0.18188
315.0000	0.18441
314.0000	0.18735
313.0000	0.19104
312.0000	0.19514
311.0000	0.2005
310.0000	0.20694
309.0000	0.21498
308.0000	0.22441
307.0000	0.23548
306.0000	0.24792
305.0000	0.26182
304.0000	0.27685
303.0000	0.29335
302.0000	0.31086
301.0000	0.32926
300.0000	0.34792
299.0000	0.36645
298.0000	0.38432
297.0000	0.40086
296.0000	0.41571
295.0000	0.42815
294.0000	0.43754
293.0000	0.4435
292.0000	0.44538
291.0000	0.44339
290.0000	0.4378
289.0000	0.4294
288.0000	0.4191
287.0000	0.40781
286.0000	0.39583
285.0000	0.38396
284.0000	0.37218
283.0000	0.36081
282.0000	0.34958
281.0000	0.33865
280.0000	0.32808
279.0000	0.31796
278.0000	0.30825
277.0000	0.299
276.0000	0.29041
275.0000	0.28253
274.0000	0.27564
273.0000	0.2694
272.0000	0.2637
271.0000	0.25829
270.0000	0.25317
269.0000	0.24816
268.0000	0.24321
267.0000	0.23841
266.0000	0.23396
265.0000	0.23004
264.0000	0.22702
263.0000	0.22464
262.0000	0.22306
261.0000	0.22224
260.0000	0.22211
259.0000	0.22261
258.0000	0.22396
257.0000	0.2262
256.0000	0.22928
255.0000	0.23297
254.0000	0.23791
253.0000	0.2438
252.0000	0.25069
251.0000	0.258
250.0000	0.26541
249.0000	0.27215
248.0000	0.2775
247.0000	0.28097
246.0000	0.28205
245.0000	0.28118
244.0000	0.27835
243.0000	0.27435
242.0000	0.26951
241.0000	0.26429
240.0000	0.25896
239.0000	0.25362
238.0000	0.24864
237.0000	0.24415
236.0000	0.24033
235.0000	0.23746
234.0000	0.23534
233.0000	0.23417
232.0000	0.23351
231.0000	0.23329
230.0000	0.2336
229.0000	0.23405
228.0000	0.23488
227.0000	0.23581
226.0000	0.23664
225.0000	0.23759
224.0000	0.23878
223.0000	0.24001
222.0000	0.24159
221.0000	0.24317
220.0000	0.24479
219.0000	0.24689
218.0000	0.24931
217.0000	0.25159
216.0000	0.254
215.0000	0.25637
214.0000	0.25901
213.0000	0.26182
212.0000	0.26479
211.0000	0.26792
210.0000	0.27147
209.0000	0.27489
208.0000	0.27872
207.0000	0.28251
206.0000	0.2871
205.0000	0.29218
204.0000	0.29845
203.0000	0.30528
202.0000	0.31266
201.0000	0.31954
200.0000	0.32567
199.0000	0.33045
198.0000	0.33411
197.0000	0.33745
196.0000	0.34056
195.0000	0.34341
194.0000	0.34532
193.0000	0.34778
192.0000	0.34774
191.0000	0.34527
190.0000	0.33418
