TITLE	
DATA TYPE	
ORIGIN	JASCO
OWNER	
DATE	19/09/02
TIME	16:23:29
SPECTROMETER/DATA SYSTEM	JASCO Corp., V-570, Rev. 1.00
RESOLUTION	
DELTAX	-1
XUNITS	NANOMETERS
YUNITS	ABSORBANCE
FIRSTX	840.0000
LASTX	190.0000
NPOINTS	651
FIRSTY	0.00520
MAXY	0.63644
MINY	0.00504
XYDATA
840.0000	0.0052
839.0000	0.00527
838.0000	0.00516
837.0000	0.00526
836.0000	0.0051
835.0000	0.00508
834.0000	0.0051
833.0000	0.00521
832.0000	0.0052
831.0000	0.00521
830.0000	0.00525
829.0000	0.00525
828.0000	0.00526
827.0000	0.00524
826.0000	0.00512
825.0000	0.00504
824.0000	0.00504
823.0000	0.0051
822.0000	0.00519
821.0000	0.00526
820.0000	0.00527
819.0000	0.0053
818.0000	0.00537
817.0000	0.00539
816.0000	0.00536
815.0000	0.00521
814.0000	0.00517
813.0000	0.00513
812.0000	0.00525
811.0000	0.00528
810.0000	0.00541
809.0000	0.00545
808.0000	0.00546
807.0000	0.00547
806.0000	0.00538
805.0000	0.0053
804.0000	0.00537
803.0000	0.00545
802.0000	0.00562
801.0000	0.00559
800.0000	0.00553
799.0000	0.00547
798.0000	0.00548
797.0000	0.00546
796.0000	0.00558
795.0000	0.00564
794.0000	0.00565
793.0000	0.00566
792.0000	0.00568
791.0000	0.00562
790.0000	0.00553
789.0000	0.00552
788.0000	0.0056
787.0000	0.00577
786.0000	0.00579
785.0000	0.00584
784.0000	0.00584
783.0000	0.00582
782.0000	0.0059
781.0000	0.00589
780.0000	0.00591
779.0000	0.00583
778.0000	0.00586
777.0000	0.00589
776.0000	0.00603
775.0000	0.00591
774.0000	0.00602
773.0000	0.00599
772.0000	0.00608
771.0000	0.00607
770.0000	0.00606
769.0000	0.00605
768.0000	0.00612
767.0000	0.00616
766.0000	0.00625
765.0000	0.00616
764.0000	0.00624
763.0000	0.00633
762.0000	0.00644
761.0000	0.00639
760.0000	0.00639
759.0000	0.00633
758.0000	0.00643
757.0000	0.00656
756.0000	0.00663
755.0000	0.00671
754.0000	0.00666
753.0000	0.00673
752.0000	0.00684
751.0000	0.0069
750.0000	0.00691
749.0000	0.00695
748.0000	0.00705
747.0000	0.00714
746.0000	0.00725
745.0000	0.00731
744.0000	0.00746
743.0000	0.00759
742.0000	0.00773
741.0000	0.00776
740.0000	0.00787
739.0000	0.00789
738.0000	0.00803
737.0000	0.00822
736.0000	0.00841
735.0000	0.00861
734.0000	0.00871
733.0000	0.00896
732.0000	0.00914
731.0000	0.0093
730.0000	0.00953
729.0000	0.00984
728.0000	0.01017
727.0000	0.01052
726.0000	0.01082
725.0000	0.01116
724.0000	0.01153
723.0000	0.01203
722.0000	0.0126
721.0000	0.01318
720.0000	0.01373
719.0000	0.01434
718.0000	0.01509
717.0000	0.01588
716.0000	0.01681
715.0000	0.01785
714.0000	0.01897
713.0000	0.0202
712.0000	0.02159
711.0000	0.02316
710.0000	0.02483
709.0000	0.02667
708.0000	0.02881
707.0000	0.03118
706.0000	0.03387
705.0000	0.03682
704.0000	0.04015
703.0000	0.04386
702.0000	0.04803
701.0000	0.05273
700.0000	0.05789
699.0000	0.06363
698.0000	0.07
697.0000	0.07711
696.0000	0.08499
695.0000	0.09372
694.0000	0.10332
693.0000	0.11392
692.0000	0.1256
691.0000	0.1385
690.0000	0.15262
689.0000	0.16805
688.0000	0.18483
687.0000	0.20296
686.0000	0.22256
685.0000	0.24355
684.0000	0.2658
683.0000	0.28923
682.0000	0.31378
681.0000	0.33927
680.0000	0.36558
679.0000	0.39215
678.0000	0.4187
677.0000	0.44483
676.0000	0.47021
675.0000	0.49468
674.0000	0.51774
673.0000	0.53912
672.0000	0.55866
671.0000	0.57618
670.0000	0.59155
669.0000	0.60448
668.0000	0.61504
667.0000	0.6234
666.0000	0.62951
665.0000	0.63366
664.0000	0.63586
663.0000	0.63644
662.0000	0.63557
661.0000	0.63339
660.0000	0.63007
659.0000	0.62572
658.0000	0.62058
657.0000	0.61468
656.0000	0.60811
655.0000	0.60089
654.0000	0.59311
653.0000	0.58479
652.0000	0.57593
651.0000	0.56666
650.0000	0.55703
649.0000	0.54704
648.0000	0.53677
647.0000	0.5262
646.0000	0.51554
645.0000	0.50494
644.0000	0.49448
643.0000	0.48415
642.0000	0.47393
641.0000	0.46399
640.0000	0.45438
639.0000	0.44517
638.0000	0.4363
637.0000	0.42796
636.0000	0.42004
635.0000	0.41262
634.0000	0.40566
633.0000	0.39918
632.0000	0.3931
631.0000	0.38758
630.0000	0.38255
629.0000	0.37802
628.0000	0.37388
627.0000	0.37022
626.0000	0.36697
625.0000	0.36411
624.0000	0.36168
623.0000	0.35942
622.0000	0.35745
621.0000	0.35564
620.0000	0.35401
619.0000	0.35246
618.0000	0.3509
617.0000	0.34922
616.0000	0.34743
615.0000	0.34546
614.0000	0.34327
613.0000	0.34074
612.0000	0.33788
611.0000	0.33455
610.0000	0.33085
609.0000	0.32678
608.0000	0.32234
607.0000	0.31742
606.0000	0.31208
605.0000	0.30635
604.0000	0.30029
603.0000	0.29391
602.0000	0.28728
601.0000	0.28047
600.0000	0.27351
599.0000	0.26646
598.0000	0.25936
597.0000	0.25229
596.0000	0.24517
595.0000	0.23808
594.0000	0.23103
593.0000	0.22418
592.0000	0.21737
591.0000	0.21067
590.0000	0.20405
589.0000	0.19772
588.0000	0.19159
587.0000	0.18567
586.0000	0.17985
585.0000	0.17424
584.0000	0.16889
583.0000	0.16374
582.0000	0.15876
581.0000	0.15394
580.0000	0.14931
579.0000	0.14494
578.0000	0.14077
577.0000	0.13678
576.0000	0.13295
575.0000	0.12925
574.0000	0.12579
573.0000	0.12241
572.0000	0.11925
571.0000	0.11613
570.0000	0.11317
569.0000	0.11028
568.0000	0.10759
567.0000	0.10494
566.0000	0.10237
565.0000	0.09984
564.0000	0.09737
563.0000	0.09501
562.0000	0.09273
561.0000	0.09048
560.0000	0.08823
559.0000	0.08598
558.0000	0.08385
557.0000	0.08179
556.0000	0.07979
555.0000	0.07777
554.0000	0.07579
553.0000	0.07391
552.0000	0.07209
551.0000	0.07033
550.0000	0.06852
549.0000	0.06682
548.0000	0.06517
547.0000	0.06366
546.0000	0.06218
545.0000	0.06073
544.0000	0.05936
543.0000	0.05803
542.0000	0.05679
541.0000	0.05566
540.0000	0.05453
539.0000	0.05346
538.0000	0.0524
537.0000	0.05146
536.0000	0.05058
535.0000	0.04981
534.0000	0.04903
533.0000	0.04825
532.0000	0.04754
531.0000	0.04691
530.0000	0.04635
529.0000	0.04577
528.0000	0.04523
527.0000	0.04477
526.0000	0.04439
525.0000	0.04405
524.0000	0.04371
523.0000	0.04339
522.0000	0.04307
521.0000	0.04283
520.0000	0.04255
519.0000	0.0424
518.0000	0.04227
517.0000	0.04209
516.0000	0.04195
515.0000	0.04181
514.0000	0.04176
513.0000	0.04168
512.0000	0.04165
511.0000	0.04161
510.0000	0.04166
509.0000	0.04164
508.0000	0.04163
507.0000	0.04156
506.0000	0.04148
505.0000	0.04144
504.0000	0.04141
503.0000	0.04139
502.0000	0.04131
501.0000	0.04125
500.0000	0.04114
499.0000	0.04109
498.0000	0.04101
497.0000	0.04085
496.0000	0.04068
495.0000	0.04045
494.0000	0.04023
493.0000	0.03999
492.0000	0.03973
491.0000	0.03944
490.0000	0.03903
489.0000	0.03873
488.0000	0.03834
487.0000	0.03807
486.0000	0.03769
485.0000	0.03737
484.0000	0.03696
483.0000	0.03664
482.0000	0.03628
481.0000	0.03587
480.0000	0.03548
479.0000	0.03499
478.0000	0.03461
477.0000	0.03419
476.0000	0.03384
475.0000	0.03338
474.0000	0.03298
473.0000	0.03261
472.0000	0.03223
471.0000	0.03192
470.0000	0.03156
469.0000	0.03117
468.0000	0.03084
467.0000	0.03046
466.0000	0.03002
465.0000	0.02962
464.0000	0.0292
463.0000	0.02887
462.0000	0.02859
461.0000	0.02828
460.0000	0.02796
459.0000	0.02757
458.0000	0.02714
457.0000	0.02682
456.0000	0.02646
455.0000	0.02619
454.0000	0.0258
453.0000	0.02538
452.0000	0.0251
451.0000	0.02483
450.0000	0.02456
449.0000	0.02419
448.0000	0.02387
447.0000	0.02352
446.0000	0.02335
445.0000	0.02307
444.0000	0.02291
443.0000	0.02266
442.0000	0.02241
441.0000	0.02219
440.0000	0.02194
439.0000	0.02171
438.0000	0.02144
437.0000	0.02129
436.0000	0.02111
435.0000	0.02098
434.0000	0.0209
433.0000	0.02078
432.0000	0.02068
431.0000	0.02051
430.0000	0.02036
429.0000	0.02026
428.0000	0.02021
427.0000	0.0201
426.0000	0.01997
425.0000	0.01987
424.0000	0.01981
423.0000	0.01985
422.0000	0.01984
421.0000	0.01987
420.0000	0.0198
419.0000	0.01986
418.0000	0.02001
417.0000	0.02012
416.0000	0.02025
415.0000	0.02038
414.0000	0.0206
413.0000	0.0209
412.0000	0.02126
411.0000	0.02156
410.0000	0.02197
409.0000	0.02235
408.0000	0.02281
407.0000	0.02326
406.0000	0.02374
405.0000	0.02429
404.0000	0.02484
403.0000	0.02534
402.0000	0.02589
401.0000	0.02638
400.0000	0.02701
399.0000	0.02759
398.0000	0.02813
397.0000	0.02847
396.0000	0.02872
395.0000	0.02892
394.0000	0.0292
393.0000	0.02946
392.0000	0.02961
391.0000	0.02995
390.0000	0.03016
389.0000	0.03043
388.0000	0.03044
387.0000	0.03058
386.0000	0.0307
385.0000	0.03082
384.0000	0.03087
383.0000	0.03098
382.0000	0.03113
381.0000	0.03141
380.0000	0.03157
379.0000	0.03177
378.0000	0.03201
377.0000	0.03232
376.0000	0.03263
375.0000	0.03286
374.0000	0.03308
373.0000	0.03327
372.0000	0.03354
371.0000	0.03378
370.0000	0.03442
369.0000	0.03494
368.0000	0.03528
367.0000	0.03571
366.0000	0.03606
365.0000	0.03659
364.0000	0.03715
363.0000	0.03777
362.0000	0.03846
361.0000	0.03913
360.0000	0.04003
359.0000	0.04092
358.0000	0.0419
357.0000	0.04275
356.0000	0.04378
355.0000	0.0448
354.0000	0.04588
353.0000	0.04701
352.0000	0.04831
351.0000	0.04949
350.0000	0.05084
349.0000	0.05235
348.0000	0.0539
347.0000	0.05569
346.0000	0.05754
345.0000	0.05961
344.0000	0.06181
343.0000	0.06418
342.0000	0.06663
341.0000	0.06936
340.0000	0.07328
339.0000	0.07591
338.0000	0.07938
337.0000	0.08341
336.0000	0.08743
335.0000	0.09121
334.0000	0.09529
333.0000	0.09928
332.0000	0.10319
331.0000	0.1067
330.0000	0.10999
329.0000	0.11287
328.0000	0.11523
327.0000	0.11705
326.0000	0.11869
325.0000	0.12015
324.0000	0.12142
323.0000	0.12255
322.0000	0.1236
321.0000	0.1251
320.0000	0.1266
319.0000	0.12823
318.0000	0.12981
317.0000	0.13183
316.0000	0.13388
315.0000	0.13636
314.0000	0.13904
313.0000	0.14266
312.0000	0.14704
311.0000	0.15234
310.0000	0.15892
309.0000	0.16694
308.0000	0.17659
307.0000	0.18778
306.0000	0.20068
305.0000	0.21507
304.0000	0.23105
303.0000	0.24793
302.0000	0.26575
301.0000	0.28451
300.0000	0.3036
299.0000	0.32293
298.0000	0.3413
297.0000	0.35855
296.0000	0.37379
295.0000	0.38669
294.0000	0.39657
293.0000	0.40253
292.0000	0.4045
291.0000	0.40228
290.0000	0.39633
289.0000	0.38757
288.0000	0.37671
287.0000	0.36468
286.0000	0.35203
285.0000	0.33936
284.0000	0.32697
283.0000	0.31498
282.0000	0.3032
281.0000	0.29182
280.0000	0.28069
279.0000	0.26982
278.0000	0.25962
277.0000	0.25002
276.0000	0.24108
275.0000	0.23298
274.0000	0.22554
273.0000	0.21907
272.0000	0.2131
271.0000	0.20761
270.0000	0.20222
269.0000	0.19686
268.0000	0.19167
267.0000	0.18673
266.0000	0.1819
265.0000	0.17786
264.0000	0.17452
263.0000	0.17204
262.0000	0.17025
261.0000	0.16929
260.0000	0.16904
259.0000	0.16963
258.0000	0.17095
257.0000	0.17324
256.0000	0.17628
255.0000	0.18031
254.0000	0.18536
253.0000	0.19141
252.0000	0.19857
251.0000	0.20633
250.0000	0.21434
249.0000	0.22142
248.0000	0.22711
247.0000	0.23072
246.0000	0.23202
245.0000	0.23109
244.0000	0.22817
243.0000	0.22394
242.0000	0.21873
241.0000	0.21316
240.0000	0.20743
239.0000	0.20182
238.0000	0.1965
237.0000	0.19184
236.0000	0.18806
235.0000	0.18521
234.0000	0.18332
233.0000	0.18218
232.0000	0.18175
231.0000	0.18164
230.0000	0.18184
229.0000	0.18229
228.0000	0.18296
227.0000	0.18355
226.0000	0.18416
225.0000	0.18468
224.0000	0.18518
223.0000	0.18562
222.0000	0.18611
221.0000	0.18674
220.0000	0.18749
219.0000	0.18842
218.0000	0.18952
217.0000	0.1906
216.0000	0.19173
215.0000	0.19315
214.0000	0.19453
213.0000	0.19644
212.0000	0.19869
211.0000	0.2013
210.0000	0.20382
209.0000	0.20676
208.0000	0.21007
207.0000	0.21428
206.0000	0.21894
205.0000	0.22493
204.0000	0.2322
203.0000	0.24038
202.0000	0.24951
201.0000	0.2592
200.0000	0.2683
199.0000	0.2768
198.0000	0.28345
197.0000	0.28906
196.0000	0.29291
195.0000	0.29527
194.0000	0.29762
193.0000	0.2968
192.0000	0.29486
191.0000	0.28603
190.0000	0.27162
