TITLE	
DATA TYPE	
ORIGIN	JASCO
OWNER	
DATE	19/09/02
TIME	15:52:05
SPECTROMETER/DATA SYSTEM	JASCO Corp., V-570, Rev. 1.00
RESOLUTION	
DELTAX	-1
XUNITS	NANOMETERS
YUNITS	ABSORBANCE
FIRSTX	840.0000
LASTX	190.0000
NPOINTS	651
FIRSTY	0.00728
MAXY	0.70449
MINY	0.00706
XYDATA
840.0000	0.00728
839.0000	0.00725
838.0000	0.00706
837.0000	0.00723
836.0000	0.00712
835.0000	0.00714
834.0000	0.00716
833.0000	0.0073
832.0000	0.00731
831.0000	0.00729
830.0000	0.00734
829.0000	0.00748
828.0000	0.00743
827.0000	0.00743
826.0000	0.00723
825.0000	0.00724
824.0000	0.00722
823.0000	0.00728
822.0000	0.00722
821.0000	0.00725
820.0000	0.00727
819.0000	0.00737
818.0000	0.00736
817.0000	0.00735
816.0000	0.00734
815.0000	0.00731
814.0000	0.00732
813.0000	0.00739
812.0000	0.00747
811.0000	0.00735
810.0000	0.0074
809.0000	0.00741
808.0000	0.00742
807.0000	0.00743
806.0000	0.0074
805.0000	0.0075
804.0000	0.00755
803.0000	0.00759
802.0000	0.00763
801.0000	0.00754
800.0000	0.00758
799.0000	0.00755
798.0000	0.00764
797.0000	0.00758
796.0000	0.00766
795.0000	0.00768
794.0000	0.0078
793.0000	0.00781
792.0000	0.00775
791.0000	0.00762
790.0000	0.00751
789.0000	0.00758
788.0000	0.00768
787.0000	0.00782
786.0000	0.00785
785.0000	0.00784
784.0000	0.00788
783.0000	0.00789
782.0000	0.00801
781.0000	0.00801
780.0000	0.0081
779.0000	0.00802
778.0000	0.00802
777.0000	0.00803
776.0000	0.00817
775.0000	0.0081
774.0000	0.00815
773.0000	0.00816
772.0000	0.00823
771.0000	0.0083
770.0000	0.00824
769.0000	0.00827
768.0000	0.00829
767.0000	0.00834
766.0000	0.00834
765.0000	0.00834
764.0000	0.00844
763.0000	0.00845
762.0000	0.00845
761.0000	0.00848
760.0000	0.00857
759.0000	0.00864
758.0000	0.00869
757.0000	0.00876
756.0000	0.00878
755.0000	0.00882
754.0000	0.00883
753.0000	0.00897
752.0000	0.00901
751.0000	0.00907
750.0000	0.00908
749.0000	0.00917
748.0000	0.00935
747.0000	0.00946
746.0000	0.00961
745.0000	0.00968
744.0000	0.00978
743.0000	0.00984
742.0000	0.00997
741.0000	0.0101
740.0000	0.01023
739.0000	0.01027
738.0000	0.01037
737.0000	0.01057
736.0000	0.01076
735.0000	0.01092
734.0000	0.01114
733.0000	0.01139
732.0000	0.01157
731.0000	0.01171
730.0000	0.01197
729.0000	0.01234
728.0000	0.0127
727.0000	0.01307
726.0000	0.01338
725.0000	0.01381
724.0000	0.01427
723.0000	0.0148
722.0000	0.01542
721.0000	0.01597
720.0000	0.01661
719.0000	0.01732
718.0000	0.01812
717.0000	0.01904
716.0000	0.02008
715.0000	0.02117
714.0000	0.02236
713.0000	0.02366
712.0000	0.02513
711.0000	0.02683
710.0000	0.02872
709.0000	0.03085
708.0000	0.03323
707.0000	0.03588
706.0000	0.03881
705.0000	0.04211
704.0000	0.04571
703.0000	0.0498
702.0000	0.0544
701.0000	0.05957
700.0000	0.06532
699.0000	0.07167
698.0000	0.07872
697.0000	0.08663
696.0000	0.09535
695.0000	0.10501
694.0000	0.11564
693.0000	0.12738
692.0000	0.1404
691.0000	0.15468
690.0000	0.17039
689.0000	0.18745
688.0000	0.20607
687.0000	0.22625
686.0000	0.24807
685.0000	0.27141
684.0000	0.29609
683.0000	0.322
682.0000	0.34913
681.0000	0.37735
680.0000	0.40651
679.0000	0.43609
678.0000	0.46559
677.0000	0.49457
676.0000	0.52266
675.0000	0.54975
674.0000	0.57534
673.0000	0.59908
672.0000	0.62075
671.0000	0.64002
670.0000	0.65681
669.0000	0.67089
668.0000	0.68238
667.0000	0.69134
666.0000	0.69781
665.0000	0.70209
664.0000	0.70424
663.0000	0.70449
662.0000	0.70312
661.0000	0.70023
660.0000	0.69608
659.0000	0.69092
658.0000	0.68481
657.0000	0.678
656.0000	0.67031
655.0000	0.66206
654.0000	0.65318
653.0000	0.6437
652.0000	0.63377
651.0000	0.62325
650.0000	0.61246
649.0000	0.60125
648.0000	0.5898
647.0000	0.57808
646.0000	0.56624
645.0000	0.55442
644.0000	0.54272
643.0000	0.53118
642.0000	0.51989
641.0000	0.50889
640.0000	0.49829
639.0000	0.48816
638.0000	0.47848
637.0000	0.46939
636.0000	0.46072
635.0000	0.45263
634.0000	0.44502
633.0000	0.43796
632.0000	0.43141
631.0000	0.42545
630.0000	0.42001
629.0000	0.41515
628.0000	0.41081
627.0000	0.40701
626.0000	0.40359
625.0000	0.40062
624.0000	0.39812
623.0000	0.39586
622.0000	0.39388
621.0000	0.39208
620.0000	0.39051
619.0000	0.38898
618.0000	0.38739
617.0000	0.38573
616.0000	0.38394
615.0000	0.38196
614.0000	0.37968
613.0000	0.37698
612.0000	0.37394
611.0000	0.37042
610.0000	0.36644
609.0000	0.36197
608.0000	0.35701
607.0000	0.35165
606.0000	0.34583
605.0000	0.3395
604.0000	0.3327
603.0000	0.32553
602.0000	0.31818
601.0000	0.3106
600.0000	0.30283
599.0000	0.29493
598.0000	0.28696
597.0000	0.27904
596.0000	0.27107
595.0000	0.26319
594.0000	0.25535
593.0000	0.24771
592.0000	0.24011
591.0000	0.23268
590.0000	0.22541
589.0000	0.21836
588.0000	0.21155
587.0000	0.20496
586.0000	0.19855
585.0000	0.1924
584.0000	0.18648
583.0000	0.18073
582.0000	0.17524
581.0000	0.16988
580.0000	0.1648
579.0000	0.15993
578.0000	0.15534
577.0000	0.15098
576.0000	0.14678
575.0000	0.14267
574.0000	0.13883
573.0000	0.13505
572.0000	0.13159
571.0000	0.12817
570.0000	0.12491
569.0000	0.12176
568.0000	0.11876
567.0000	0.11588
566.0000	0.11308
565.0000	0.1103
564.0000	0.1076
563.0000	0.10496
562.0000	0.10241
561.0000	0.09992
560.0000	0.0974
559.0000	0.095
558.0000	0.09265
557.0000	0.09038
556.0000	0.0881
555.0000	0.08593
554.0000	0.08372
553.0000	0.08158
552.0000	0.07946
551.0000	0.07746
550.0000	0.07547
549.0000	0.07365
548.0000	0.07181
547.0000	0.07018
546.0000	0.06852
545.0000	0.06689
544.0000	0.06532
543.0000	0.06385
542.0000	0.06244
541.0000	0.06118
540.0000	0.05992
539.0000	0.0588
538.0000	0.05767
537.0000	0.05663
536.0000	0.05562
535.0000	0.05473
534.0000	0.05384
533.0000	0.05297
532.0000	0.05217
531.0000	0.05147
530.0000	0.05082
529.0000	0.05022
528.0000	0.04974
527.0000	0.04921
526.0000	0.04874
525.0000	0.04832
524.0000	0.04792
523.0000	0.04756
522.0000	0.04723
521.0000	0.04697
520.0000	0.04661
519.0000	0.04648
518.0000	0.04632
517.0000	0.04616
516.0000	0.04607
515.0000	0.04596
514.0000	0.04589
513.0000	0.04578
512.0000	0.04566
511.0000	0.04561
510.0000	0.04563
509.0000	0.04565
508.0000	0.04565
507.0000	0.04559
506.0000	0.04555
505.0000	0.04552
504.0000	0.04551
503.0000	0.04548
502.0000	0.0454
501.0000	0.04535
500.0000	0.04523
499.0000	0.04513
498.0000	0.04502
497.0000	0.04487
496.0000	0.04469
495.0000	0.04449
494.0000	0.04428
493.0000	0.04403
492.0000	0.04374
491.0000	0.0434
490.0000	0.04301
489.0000	0.04267
488.0000	0.0423
487.0000	0.04198
486.0000	0.04159
485.0000	0.04117
484.0000	0.04072
483.0000	0.04033
482.0000	0.03991
481.0000	0.03948
480.0000	0.03907
479.0000	0.03857
478.0000	0.03814
477.0000	0.03768
476.0000	0.03732
475.0000	0.03697
474.0000	0.03661
473.0000	0.03622
472.0000	0.03579
471.0000	0.03542
470.0000	0.03498
469.0000	0.03453
468.0000	0.03412
467.0000	0.03371
466.0000	0.03336
465.0000	0.033
464.0000	0.0326
463.0000	0.03217
462.0000	0.03178
461.0000	0.03143
460.0000	0.03108
459.0000	0.0307
458.0000	0.03029
457.0000	0.02991
456.0000	0.02958
455.0000	0.02927
454.0000	0.02894
453.0000	0.02854
452.0000	0.02825
451.0000	0.0279
450.0000	0.02755
449.0000	0.02719
448.0000	0.02693
447.0000	0.02659
446.0000	0.02631
445.0000	0.02602
444.0000	0.02578
443.0000	0.02552
442.0000	0.02525
441.0000	0.025
440.0000	0.02473
439.0000	0.02447
438.0000	0.02427
437.0000	0.02408
436.0000	0.02392
435.0000	0.02376
434.0000	0.02361
433.0000	0.02342
432.0000	0.02323
431.0000	0.02309
430.0000	0.02295
429.0000	0.02294
428.0000	0.02283
427.0000	0.02273
426.0000	0.0226
425.0000	0.0225
424.0000	0.02247
423.0000	0.0225
422.0000	0.02249
421.0000	0.02253
420.0000	0.02259
419.0000	0.02265
418.0000	0.0227
417.0000	0.02276
416.0000	0.02292
415.0000	0.02304
414.0000	0.02334
413.0000	0.02355
412.0000	0.02391
411.0000	0.02422
410.0000	0.0247
409.0000	0.02517
408.0000	0.02569
407.0000	0.02617
406.0000	0.02662
405.0000	0.0272
404.0000	0.02776
403.0000	0.0284
402.0000	0.02903
401.0000	0.02958
400.0000	0.03024
399.0000	0.03088
398.0000	0.03135
397.0000	0.03158
396.0000	0.03176
395.0000	0.03208
394.0000	0.03246
393.0000	0.03279
392.0000	0.033
391.0000	0.03314
390.0000	0.03334
389.0000	0.03349
388.0000	0.0336
387.0000	0.03368
386.0000	0.03372
385.0000	0.03377
384.0000	0.03381
383.0000	0.03395
382.0000	0.03411
381.0000	0.03431
380.0000	0.03449
379.0000	0.03466
378.0000	0.03485
377.0000	0.03504
376.0000	0.03517
375.0000	0.0354
374.0000	0.03569
373.0000	0.03595
372.0000	0.03623
371.0000	0.03646
370.0000	0.03704
369.0000	0.03739
368.0000	0.03773
367.0000	0.03811
366.0000	0.03847
365.0000	0.03905
364.0000	0.03961
363.0000	0.04012
362.0000	0.0407
361.0000	0.04142
360.0000	0.04232
359.0000	0.04322
358.0000	0.04417
357.0000	0.04506
356.0000	0.04614
355.0000	0.04719
354.0000	0.04828
353.0000	0.04941
352.0000	0.05065
351.0000	0.05189
350.0000	0.05313
349.0000	0.05471
348.0000	0.0563
347.0000	0.05802
346.0000	0.05978
345.0000	0.0618
344.0000	0.06393
343.0000	0.06638
342.0000	0.06895
341.0000	0.07178
340.0000	0.07605
339.0000	0.07887
338.0000	0.08232
337.0000	0.08654
336.0000	0.09074
335.0000	0.09502
334.0000	0.0995
333.0000	0.10379
332.0000	0.10794
331.0000	0.11166
330.0000	0.1151
329.0000	0.11793
328.0000	0.12045
327.0000	0.12247
326.0000	0.12426
325.0000	0.12586
324.0000	0.12713
323.0000	0.12838
322.0000	0.12947
321.0000	0.13075
320.0000	0.13216
319.0000	0.13388
318.0000	0.13571
317.0000	0.13795
316.0000	0.14029
315.0000	0.1431
314.0000	0.14597
313.0000	0.14986
312.0000	0.15457
311.0000	0.16033
310.0000	0.16747
309.0000	0.17619
308.0000	0.18681
307.0000	0.19924
306.0000	0.21348
305.0000	0.22951
304.0000	0.24687
303.0000	0.26549
302.0000	0.285
301.0000	0.30566
300.0000	0.3266
299.0000	0.34771
298.0000	0.36808
297.0000	0.38698
296.0000	0.40379
295.0000	0.41785
294.0000	0.42845
293.0000	0.43503
292.0000	0.43711
291.0000	0.43482
290.0000	0.42836
289.0000	0.4188
288.0000	0.40665
287.0000	0.39316
286.0000	0.37902
285.0000	0.3651
284.0000	0.35132
283.0000	0.33801
282.0000	0.32494
281.0000	0.31229
280.0000	0.29991
279.0000	0.28792
278.0000	0.2766
277.0000	0.26589
276.0000	0.25605
275.0000	0.24704
274.0000	0.23887
273.0000	0.23163
272.0000	0.22479
271.0000	0.21863
270.0000	0.2126
269.0000	0.20663
268.0000	0.20083
267.0000	0.19523
266.0000	0.18996
265.0000	0.18538
264.0000	0.18157
263.0000	0.17871
262.0000	0.17672
261.0000	0.17563
260.0000	0.17549
259.0000	0.17623
258.0000	0.17778
257.0000	0.18018
256.0000	0.18348
255.0000	0.18779
254.0000	0.19336
253.0000	0.20018
252.0000	0.20803
251.0000	0.21663
250.0000	0.22521
249.0000	0.23327
248.0000	0.23957
247.0000	0.24353
246.0000	0.2449
245.0000	0.24379
244.0000	0.24061
243.0000	0.23581
242.0000	0.22994
241.0000	0.22362
240.0000	0.21724
239.0000	0.21093
238.0000	0.20479
237.0000	0.19938
236.0000	0.19457
235.0000	0.19081
234.0000	0.18799
233.0000	0.18617
232.0000	0.1851
231.0000	0.18448
230.0000	0.18433
229.0000	0.1847
228.0000	0.18521
227.0000	0.18574
226.0000	0.18622
225.0000	0.18692
224.0000	0.18771
223.0000	0.1886
222.0000	0.18973
221.0000	0.19116
220.0000	0.193
219.0000	0.19488
218.0000	0.1968
217.0000	0.19892
216.0000	0.2012
215.0000	0.20372
214.0000	0.20633
213.0000	0.20933
212.0000	0.21257
211.0000	0.21623
210.0000	0.21977
209.0000	0.224
208.0000	0.2283
207.0000	0.23349
206.0000	0.23903
205.0000	0.24584
204.0000	0.25389
203.0000	0.26289
202.0000	0.27218
201.0000	0.28065
200.0000	0.28789
199.0000	0.2936
198.0000	0.29762
197.0000	0.30157
196.0000	0.30461
195.0000	0.30675
194.0000	0.3092
193.0000	0.30992
192.0000	0.31004
191.0000	0.30486
190.0000	0.29154
