TITLE	
DATA TYPE	
ORIGIN	JASCO
OWNER	
DATE	19/09/02
TIME	16:41:43
SPECTROMETER/DATA SYSTEM	JASCO Corp., V-570, Rev. 1.00
RESOLUTION	
DELTAX	-1
XUNITS	NANOMETERS
YUNITS	ABSORBANCE
FIRSTX	840.0000
LASTX	190.0000
NPOINTS	651
FIRSTY	0.00492
MAXY	0.29847
MINY	0.00421
XYDATA
840.0000	0.00492
839.0000	0.00485
838.0000	0.00474
837.0000	0.00473
836.0000	0.00459
835.0000	0.0045
834.0000	0.00456
833.0000	0.00468
832.0000	0.0046
831.0000	0.00455
830.0000	0.0045
829.0000	0.00452
828.0000	0.0045
827.0000	0.00451
826.0000	0.00444
825.0000	0.00434
824.0000	0.00421
823.0000	0.00423
822.0000	0.00432
821.0000	0.00445
820.0000	0.00444
819.0000	0.00457
818.0000	0.00456
817.0000	0.00452
816.0000	0.0044
815.0000	0.00426
814.0000	0.00436
813.0000	0.00444
812.0000	0.00454
811.0000	0.00444
810.0000	0.00443
809.0000	0.00451
808.0000	0.00452
807.0000	0.00457
806.0000	0.00455
805.0000	0.00456
804.0000	0.00454
803.0000	0.0045
802.0000	0.00457
801.0000	0.00458
800.0000	0.00464
799.0000	0.0045
798.0000	0.00446
797.0000	0.00445
796.0000	0.00457
795.0000	0.00459
794.0000	0.00454
793.0000	0.00462
792.0000	0.00468
791.0000	0.00464
790.0000	0.00454
789.0000	0.00443
788.0000	0.00455
787.0000	0.00465
786.0000	0.00479
785.0000	0.00477
784.0000	0.00475
783.0000	0.0047
782.0000	0.00475
781.0000	0.00473
780.0000	0.00476
779.0000	0.00469
778.0000	0.00474
777.0000	0.00479
776.0000	0.00488
775.0000	0.00484
774.0000	0.00483
773.0000	0.00483
772.0000	0.00483
771.0000	0.00493
770.0000	0.00482
769.0000	0.0048
768.0000	0.00474
767.0000	0.00474
766.0000	0.00476
765.0000	0.00469
764.0000	0.00482
763.0000	0.00482
762.0000	0.0049
761.0000	0.00489
760.0000	0.00489
759.0000	0.0049
758.0000	0.00496
757.0000	0.00495
756.0000	0.0049
755.0000	0.00486
754.0000	0.00488
753.0000	0.00499
752.0000	0.00501
751.0000	0.00505
750.0000	0.00509
749.0000	0.00513
748.0000	0.00514
747.0000	0.00519
746.0000	0.00522
745.0000	0.00525
744.0000	0.00528
743.0000	0.00528
742.0000	0.00533
741.0000	0.00538
740.0000	0.0054
739.0000	0.00532
738.0000	0.0053
737.0000	0.00543
736.0000	0.00557
735.0000	0.00565
734.0000	0.00568
733.0000	0.00574
732.0000	0.00583
731.0000	0.00591
730.0000	0.00605
729.0000	0.00621
728.0000	0.00635
727.0000	0.00648
726.0000	0.00657
725.0000	0.00677
724.0000	0.007
723.0000	0.00732
722.0000	0.00756
721.0000	0.00775
720.0000	0.00799
719.0000	0.00829
718.0000	0.00864
717.0000	0.009
716.0000	0.00944
715.0000	0.00991
714.0000	0.0104
713.0000	0.01096
712.0000	0.01158
711.0000	0.01231
710.0000	0.01309
709.0000	0.01396
708.0000	0.0149
707.0000	0.01595
706.0000	0.0171
705.0000	0.01852
704.0000	0.01999
703.0000	0.02173
702.0000	0.0236
701.0000	0.02573
700.0000	0.02804
699.0000	0.03056
698.0000	0.03336
697.0000	0.03653
696.0000	0.03999
695.0000	0.04383
694.0000	0.04801
693.0000	0.05273
692.0000	0.05794
691.0000	0.06362
690.0000	0.06986
689.0000	0.07669
688.0000	0.08413
687.0000	0.09212
686.0000	0.10077
685.0000	0.1101
684.0000	0.11996
683.0000	0.13034
682.0000	0.14128
681.0000	0.15269
680.0000	0.16444
679.0000	0.17636
678.0000	0.18821
677.0000	0.20001
676.0000	0.21152
675.0000	0.22268
674.0000	0.2333
673.0000	0.24328
672.0000	0.25259
671.0000	0.26106
670.0000	0.26869
669.0000	0.27533
668.0000	0.28112
667.0000	0.28592
666.0000	0.2898
665.0000	0.29294
664.0000	0.29527
663.0000	0.297
662.0000	0.29804
661.0000	0.29847
660.0000	0.29834
659.0000	0.29776
658.0000	0.2967
657.0000	0.29527
656.0000	0.2934
655.0000	0.29124
654.0000	0.2887
653.0000	0.28587
652.0000	0.28266
651.0000	0.2792
650.0000	0.27547
649.0000	0.27149
648.0000	0.26726
647.0000	0.26282
646.0000	0.25826
645.0000	0.2537
644.0000	0.2491
643.0000	0.24455
642.0000	0.24001
641.0000	0.23551
640.0000	0.23107
639.0000	0.22674
638.0000	0.22258
637.0000	0.21863
636.0000	0.21482
635.0000	0.21112
634.0000	0.20754
633.0000	0.20423
632.0000	0.20108
631.0000	0.19811
630.0000	0.19528
629.0000	0.19267
628.0000	0.19027
627.0000	0.18808
626.0000	0.18604
625.0000	0.18414
624.0000	0.18243
623.0000	0.18081
622.0000	0.17934
621.0000	0.17799
620.0000	0.17668
619.0000	0.17541
618.0000	0.17411
617.0000	0.17286
616.0000	0.17159
615.0000	0.17027
614.0000	0.16889
613.0000	0.16737
612.0000	0.16577
611.0000	0.164
610.0000	0.16212
609.0000	0.16006
608.0000	0.15794
607.0000	0.15561
606.0000	0.15318
605.0000	0.15055
604.0000	0.14784
603.0000	0.14493
602.0000	0.14198
601.0000	0.13892
600.0000	0.1358
599.0000	0.13269
598.0000	0.12953
597.0000	0.12639
596.0000	0.12321
595.0000	0.12006
594.0000	0.11689
593.0000	0.1138
592.0000	0.11065
591.0000	0.1076
590.0000	0.10456
589.0000	0.10159
588.0000	0.09868
587.0000	0.09588
586.0000	0.09316
585.0000	0.09056
584.0000	0.08809
583.0000	0.08563
582.0000	0.0832
581.0000	0.08082
580.0000	0.07853
579.0000	0.0764
578.0000	0.07435
577.0000	0.07245
576.0000	0.07055
575.0000	0.06873
574.0000	0.067
573.0000	0.06527
572.0000	0.06368
571.0000	0.06212
570.0000	0.06066
569.0000	0.05921
568.0000	0.05786
567.0000	0.05656
566.0000	0.05531
565.0000	0.05405
564.0000	0.05282
563.0000	0.05164
562.0000	0.05051
561.0000	0.04935
560.0000	0.04824
559.0000	0.04718
558.0000	0.04617
557.0000	0.04513
556.0000	0.04414
555.0000	0.04321
554.0000	0.04234
553.0000	0.04147
552.0000	0.04057
551.0000	0.03971
550.0000	0.03884
549.0000	0.03806
548.0000	0.03725
547.0000	0.03656
546.0000	0.03587
545.0000	0.03524
544.0000	0.03458
543.0000	0.03391
542.0000	0.0333
541.0000	0.03278
540.0000	0.03226
539.0000	0.03177
538.0000	0.03126
537.0000	0.03083
536.0000	0.03042
535.0000	0.03003
534.0000	0.02969
533.0000	0.02932
532.0000	0.02897
531.0000	0.02865
530.0000	0.0283
529.0000	0.02805
528.0000	0.02787
527.0000	0.02766
526.0000	0.02745
525.0000	0.02727
524.0000	0.02711
523.0000	0.027
522.0000	0.02684
521.0000	0.02668
520.0000	0.02653
519.0000	0.02647
518.0000	0.02641
517.0000	0.02627
516.0000	0.02624
515.0000	0.02614
514.0000	0.02613
513.0000	0.02609
512.0000	0.02607
511.0000	0.02605
510.0000	0.02609
509.0000	0.02613
508.0000	0.0261
507.0000	0.026
506.0000	0.02593
505.0000	0.02591
504.0000	0.02595
503.0000	0.02594
502.0000	0.02591
501.0000	0.0259
500.0000	0.02584
499.0000	0.02585
498.0000	0.02576
497.0000	0.02568
496.0000	0.02562
495.0000	0.02553
494.0000	0.02546
493.0000	0.02536
492.0000	0.02527
491.0000	0.02517
490.0000	0.02494
489.0000	0.02476
488.0000	0.02455
487.0000	0.02448
486.0000	0.02427
485.0000	0.0241
484.0000	0.02388
483.0000	0.02375
482.0000	0.0236
481.0000	0.02338
480.0000	0.0232
479.0000	0.02296
478.0000	0.02277
477.0000	0.02259
476.0000	0.02242
475.0000	0.02219
474.0000	0.02202
473.0000	0.02184
472.0000	0.02166
471.0000	0.02147
470.0000	0.02123
469.0000	0.02102
468.0000	0.02087
467.0000	0.02066
466.0000	0.02052
465.0000	0.02033
464.0000	0.02009
463.0000	0.01987
462.0000	0.01973
461.0000	0.01957
460.0000	0.01943
459.0000	0.01922
458.0000	0.01902
457.0000	0.01886
456.0000	0.01871
455.0000	0.01859
454.0000	0.01841
453.0000	0.01816
452.0000	0.01805
451.0000	0.0179
450.0000	0.0178
449.0000	0.01764
448.0000	0.01758
447.0000	0.01743
446.0000	0.01736
445.0000	0.01718
444.0000	0.01712
443.0000	0.017
442.0000	0.01689
441.0000	0.01677
440.0000	0.01669
439.0000	0.0166
438.0000	0.01655
437.0000	0.01653
436.0000	0.01646
435.0000	0.01639
434.0000	0.01634
433.0000	0.01635
432.0000	0.01634
431.0000	0.01626
430.0000	0.01624
429.0000	0.01618
428.0000	0.0162
427.0000	0.01618
426.0000	0.01614
425.0000	0.01613
424.0000	0.01612
423.0000	0.01619
422.0000	0.01625
421.0000	0.01636
420.0000	0.0163
419.0000	0.01632
418.0000	0.01643
417.0000	0.0165
416.0000	0.01663
415.0000	0.01678
414.0000	0.01701
413.0000	0.01714
412.0000	0.01738
411.0000	0.01758
410.0000	0.01782
409.0000	0.01809
408.0000	0.0183
407.0000	0.01864
406.0000	0.01891
405.0000	0.01927
404.0000	0.0196
403.0000	0.01999
402.0000	0.02047
401.0000	0.02078
400.0000	0.02121
399.0000	0.02162
398.0000	0.02197
397.0000	0.02224
396.0000	0.02239
395.0000	0.02266
394.0000	0.023
393.0000	0.0233
392.0000	0.0235
391.0000	0.02379
390.0000	0.02406
389.0000	0.02439
388.0000	0.0246
387.0000	0.0248
386.0000	0.025
385.0000	0.02529
384.0000	0.02554
383.0000	0.02579
382.0000	0.02595
381.0000	0.02625
380.0000	0.0265
379.0000	0.02683
378.0000	0.02713
377.0000	0.02755
376.0000	0.02783
375.0000	0.02819
374.0000	0.0285
373.0000	0.02889
372.0000	0.02928
371.0000	0.0296
370.0000	0.03008
369.0000	0.03053
368.0000	0.03097
367.0000	0.03137
366.0000	0.0319
365.0000	0.03251
364.0000	0.03315
363.0000	0.03376
362.0000	0.03444
361.0000	0.03509
360.0000	0.0358
359.0000	0.03657
358.0000	0.03741
357.0000	0.03833
356.0000	0.03931
355.0000	0.04023
354.0000	0.04126
353.0000	0.04224
352.0000	0.04338
351.0000	0.04447
350.0000	0.04563
349.0000	0.04692
348.0000	0.04822
347.0000	0.04978
346.0000	0.05127
345.0000	0.05301
344.0000	0.0548
343.0000	0.05661
342.0000	0.0584
341.0000	0.0602
340.0000	0.06285
339.0000	0.06465
338.0000	0.06684
337.0000	0.06948
336.0000	0.07191
335.0000	0.07431
334.0000	0.07694
333.0000	0.07944
332.0000	0.08189
331.0000	0.08406
330.0000	0.08626
329.0000	0.08823
328.0000	0.09015
327.0000	0.09164
326.0000	0.09301
325.0000	0.09407
324.0000	0.09503
323.0000	0.09598
322.0000	0.09694
321.0000	0.09811
320.0000	0.09911
319.0000	0.10016
318.0000	0.10136
317.0000	0.10269
316.0000	0.10399
315.0000	0.10545
314.0000	0.10683
313.0000	0.10882
312.0000	0.11117
311.0000	0.11393
310.0000	0.11707
309.0000	0.12101
308.0000	0.1257
307.0000	0.13125
306.0000	0.13768
305.0000	0.14469
304.0000	0.15243
303.0000	0.16058
302.0000	0.1692
301.0000	0.17838
300.0000	0.18776
299.0000	0.1973
298.0000	0.20652
297.0000	0.21529
296.0000	0.22338
295.0000	0.23026
294.0000	0.23575
293.0000	0.23937
292.0000	0.24114
291.0000	0.24095
290.0000	0.23893
289.0000	0.23561
288.0000	0.23107
287.0000	0.2258
286.0000	0.21996
285.0000	0.21422
284.0000	0.20869
283.0000	0.20337
282.0000	0.19793
281.0000	0.19292
280.0000	0.18803
279.0000	0.1833
278.0000	0.17889
277.0000	0.17458
276.0000	0.17073
275.0000	0.16722
274.0000	0.16401
273.0000	0.16107
272.0000	0.15852
271.0000	0.15639
270.0000	0.1542
269.0000	0.15209
268.0000	0.14978
267.0000	0.14781
266.0000	0.14592
265.0000	0.14432
264.0000	0.14292
263.0000	0.14202
262.0000	0.14144
261.0000	0.1412
260.0000	0.1414
259.0000	0.14181
258.0000	0.14249
257.0000	0.14362
256.0000	0.14512
255.0000	0.14721
254.0000	0.14972
253.0000	0.1528
252.0000	0.15641
251.0000	0.16023
250.0000	0.16409
249.0000	0.16791
248.0000	0.17113
247.0000	0.17353
246.0000	0.17462
245.0000	0.17485
244.0000	0.17425
243.0000	0.17305
242.0000	0.17134
241.0000	0.16945
240.0000	0.16754
239.0000	0.16575
238.0000	0.16398
237.0000	0.16245
236.0000	0.16137
235.0000	0.161
234.0000	0.16109
233.0000	0.1617
232.0000	0.16251
231.0000	0.16351
230.0000	0.16467
229.0000	0.16605
228.0000	0.16763
227.0000	0.16924
226.0000	0.1712
225.0000	0.17316
224.0000	0.17518
223.0000	0.17678
222.0000	0.17861
221.0000	0.18032
220.0000	0.18247
219.0000	0.18455
218.0000	0.18699
217.0000	0.18931
216.0000	0.19176
215.0000	0.19399
214.0000	0.19634
213.0000	0.1987
212.0000	0.20123
211.0000	0.20381
210.0000	0.20623
209.0000	0.20864
208.0000	0.21085
207.0000	0.21338
206.0000	0.21597
205.0000	0.21932
204.0000	0.2227
203.0000	0.22663
202.0000	0.23037
201.0000	0.23409
200.0000	0.23671
199.0000	0.23866
198.0000	0.23963
197.0000	0.24104
196.0000	0.24196
195.0000	0.24191
194.0000	0.2413
193.0000	0.23997
192.0000	0.23802
191.0000	0.23285
190.0000	0.22231
