TITLE	
DATA TYPE	
ORIGIN	JASCO
OWNER	
DATE	19/09/02
TIME	16:04:52
SPECTROMETER/DATA SYSTEM	JASCO Corp., V-570, Rev. 1.00
RESOLUTION	
DELTAX	-1
XUNITS	NANOMETERS
YUNITS	ABSORBANCE
FIRSTX	840.0000
LASTX	190.0000
NPOINTS	651
FIRSTY	0.00773
MAXY	1.01313
MINY	0.00763
XYDATA
840.0000	0.00773
839.0000	0.00769
838.0000	0.00763
837.0000	0.00782
836.0000	0.0077
835.0000	0.00772
834.0000	0.00775
833.0000	0.00783
832.0000	0.00783
831.0000	0.00776
830.0000	0.00776
829.0000	0.00782
828.0000	0.0079
827.0000	0.00788
826.0000	0.00779
825.0000	0.0077
824.0000	0.00775
823.0000	0.00775
822.0000	0.00776
821.0000	0.00784
820.0000	0.00793
819.0000	0.008
818.0000	0.00807
817.0000	0.00804
816.0000	0.00792
815.0000	0.00793
814.0000	0.00807
813.0000	0.00808
812.0000	0.00824
811.0000	0.00814
810.0000	0.00817
809.0000	0.00824
808.0000	0.00821
807.0000	0.00819
806.0000	0.0081
805.0000	0.00819
804.0000	0.00834
803.0000	0.00839
802.0000	0.0085
801.0000	0.0085
800.0000	0.00853
799.0000	0.00855
798.0000	0.00856
797.0000	0.00852
796.0000	0.0086
795.0000	0.00865
794.0000	0.0087
793.0000	0.00869
792.0000	0.00875
791.0000	0.00887
790.0000	0.0089
789.0000	0.0089
788.0000	0.00884
787.0000	0.00892
786.0000	0.00909
785.0000	0.00925
784.0000	0.00929
783.0000	0.00919
782.0000	0.00925
781.0000	0.00935
780.0000	0.00936
779.0000	0.00936
778.0000	0.00942
777.0000	0.00953
776.0000	0.00963
775.0000	0.00967
774.0000	0.00977
773.0000	0.00987
772.0000	0.00987
771.0000	0.00993
770.0000	0.00996
769.0000	0.01005
768.0000	0.01017
767.0000	0.01022
766.0000	0.01026
765.0000	0.01029
764.0000	0.01038
763.0000	0.01056
762.0000	0.01073
761.0000	0.01086
760.0000	0.01091
759.0000	0.01097
758.0000	0.01112
757.0000	0.01128
756.0000	0.01141
755.0000	0.0115
754.0000	0.01153
753.0000	0.01163
752.0000	0.01174
751.0000	0.01189
750.0000	0.01207
749.0000	0.01226
748.0000	0.01242
747.0000	0.01258
746.0000	0.01281
745.0000	0.01294
744.0000	0.01316
743.0000	0.01331
742.0000	0.01355
741.0000	0.01373
740.0000	0.01392
739.0000	0.01412
738.0000	0.01438
737.0000	0.01472
736.0000	0.01501
735.0000	0.01531
734.0000	0.01569
733.0000	0.01605
732.0000	0.01642
731.0000	0.01676
730.0000	0.01721
729.0000	0.01772
728.0000	0.01823
727.0000	0.01875
726.0000	0.01931
725.0000	0.01997
724.0000	0.02063
723.0000	0.02146
722.0000	0.0223
721.0000	0.02316
720.0000	0.02411
719.0000	0.02517
718.0000	0.02637
717.0000	0.02767
716.0000	0.02916
715.0000	0.03075
714.0000	0.03251
713.0000	0.03452
712.0000	0.0367
711.0000	0.0392
710.0000	0.04195
709.0000	0.04503
708.0000	0.04851
707.0000	0.05228
706.0000	0.05653
705.0000	0.06131
704.0000	0.06662
703.0000	0.0726
702.0000	0.0793
701.0000	0.08679
700.0000	0.09508
699.0000	0.10431
698.0000	0.11457
697.0000	0.12603
696.0000	0.13869
695.0000	0.15272
694.0000	0.16817
693.0000	0.18522
692.0000	0.20403
691.0000	0.2248
690.0000	0.24762
689.0000	0.27249
688.0000	0.29952
687.0000	0.32873
686.0000	0.36036
685.0000	0.39421
684.0000	0.43012
683.0000	0.46786
682.0000	0.50739
681.0000	0.54839
680.0000	0.59075
679.0000	0.6337
678.0000	0.67656
677.0000	0.71849
676.0000	0.75914
675.0000	0.79821
674.0000	0.835
673.0000	0.86903
672.0000	0.89998
671.0000	0.92744
670.0000	0.95114
669.0000	0.97074
668.0000	0.98647
667.0000	0.99836
666.0000	1.00656
665.0000	1.01138
664.0000	1.01313
663.0000	1.01211
662.0000	1.00881
661.0000	1.00329
660.0000	0.99608
659.0000	0.9873
658.0000	0.97731
657.0000	0.96612
656.0000	0.95383
655.0000	0.94088
654.0000	0.92716
653.0000	0.91277
652.0000	0.89763
651.0000	0.88194
650.0000	0.86577
649.0000	0.84921
648.0000	0.83227
647.0000	0.81514
646.0000	0.79796
645.0000	0.78084
644.0000	0.76396
643.0000	0.74737
642.0000	0.73125
641.0000	0.71567
640.0000	0.70062
639.0000	0.68639
638.0000	0.67278
637.0000	0.6601
636.0000	0.64812
635.0000	0.63704
634.0000	0.62675
633.0000	0.61735
632.0000	0.6088
631.0000	0.60107
630.0000	0.59415
629.0000	0.58798
628.0000	0.58261
627.0000	0.57803
626.0000	0.57417
625.0000	0.57095
624.0000	0.56831
623.0000	0.56611
622.0000	0.56433
621.0000	0.56286
620.0000	0.56164
619.0000	0.5604
618.0000	0.55911
617.0000	0.55758
616.0000	0.55581
615.0000	0.55371
614.0000	0.55115
613.0000	0.54795
612.0000	0.5441
611.0000	0.53939
610.0000	0.53395
609.0000	0.52766
608.0000	0.5206
607.0000	0.51273
606.0000	0.50412
605.0000	0.49479
604.0000	0.48488
603.0000	0.47429
602.0000	0.46326
601.0000	0.45184
600.0000	0.44015
599.0000	0.42833
598.0000	0.4164
597.0000	0.40447
596.0000	0.39254
595.0000	0.38066
594.0000	0.36895
593.0000	0.35746
592.0000	0.34619
591.0000	0.33513
590.0000	0.32434
589.0000	0.31388
588.0000	0.30381
587.0000	0.29406
586.0000	0.28457
585.0000	0.27546
584.0000	0.2667
583.0000	0.25825
582.0000	0.2501
581.0000	0.24232
580.0000	0.2349
579.0000	0.22783
578.0000	0.22109
577.0000	0.2147
576.0000	0.20847
575.0000	0.20253
574.0000	0.19687
573.0000	0.19149
572.0000	0.18638
571.0000	0.18146
570.0000	0.17671
569.0000	0.17213
568.0000	0.1677
567.0000	0.16345
566.0000	0.1593
565.0000	0.15523
564.0000	0.15121
563.0000	0.14736
562.0000	0.14357
561.0000	0.13989
560.0000	0.13621
559.0000	0.1326
558.0000	0.12911
557.0000	0.12567
556.0000	0.12227
555.0000	0.11894
554.0000	0.11568
553.0000	0.11251
552.0000	0.10937
551.0000	0.10626
550.0000	0.10329
549.0000	0.10043
548.0000	0.09769
547.0000	0.09507
546.0000	0.09249
545.0000	0.09005
544.0000	0.08773
543.0000	0.08553
542.0000	0.0834
541.0000	0.08141
540.0000	0.0795
539.0000	0.07765
538.0000	0.07589
537.0000	0.07423
536.0000	0.07273
535.0000	0.07137
534.0000	0.07
533.0000	0.06872
532.0000	0.06747
531.0000	0.06637
530.0000	0.06536
529.0000	0.06442
528.0000	0.06355
527.0000	0.06279
526.0000	0.06206
525.0000	0.0614
524.0000	0.06074
523.0000	0.06021
522.0000	0.05971
521.0000	0.05925
520.0000	0.0587
519.0000	0.05845
518.0000	0.05818
517.0000	0.05785
516.0000	0.05766
515.0000	0.05745
514.0000	0.05731
513.0000	0.05716
512.0000	0.05709
511.0000	0.05704
510.0000	0.05707
509.0000	0.05706
508.0000	0.05702
507.0000	0.05693
506.0000	0.05687
505.0000	0.0568
504.0000	0.05681
503.0000	0.05676
502.0000	0.05672
501.0000	0.05663
500.0000	0.05645
499.0000	0.0563
498.0000	0.05606
497.0000	0.05583
496.0000	0.05553
495.0000	0.05521
494.0000	0.05487
493.0000	0.05455
492.0000	0.05413
491.0000	0.05377
490.0000	0.05324
489.0000	0.0528
488.0000	0.05226
487.0000	0.05181
486.0000	0.05128
485.0000	0.05073
484.0000	0.05012
483.0000	0.04956
482.0000	0.04898
481.0000	0.04834
480.0000	0.04781
479.0000	0.04718
478.0000	0.04664
477.0000	0.046
476.0000	0.04546
475.0000	0.04491
474.0000	0.04437
473.0000	0.04384
472.0000	0.04329
471.0000	0.04279
470.0000	0.04225
469.0000	0.04167
468.0000	0.04113
467.0000	0.0406
466.0000	0.04008
465.0000	0.03962
464.0000	0.03904
463.0000	0.03851
462.0000	0.03795
461.0000	0.0374
460.0000	0.03695
459.0000	0.03647
458.0000	0.03592
457.0000	0.03532
456.0000	0.03477
455.0000	0.0343
454.0000	0.03383
453.0000	0.03331
452.0000	0.03287
451.0000	0.03244
450.0000	0.03196
449.0000	0.03148
448.0000	0.03104
447.0000	0.03063
446.0000	0.03027
445.0000	0.02986
444.0000	0.02952
443.0000	0.02909
442.0000	0.02869
441.0000	0.02834
440.0000	0.02799
439.0000	0.02772
438.0000	0.02735
437.0000	0.02705
436.0000	0.0268
435.0000	0.02657
434.0000	0.0264
433.0000	0.02622
432.0000	0.02602
431.0000	0.02575
430.0000	0.02543
429.0000	0.02524
428.0000	0.02513
427.0000	0.02497
426.0000	0.02477
425.0000	0.02452
424.0000	0.02432
423.0000	0.02431
422.0000	0.02426
421.0000	0.02429
420.0000	0.02437
419.0000	0.02448
418.0000	0.02453
417.0000	0.02459
416.0000	0.02475
415.0000	0.02496
414.0000	0.02527
413.0000	0.02551
412.0000	0.02595
411.0000	0.02632
410.0000	0.02679
409.0000	0.02735
408.0000	0.02796
407.0000	0.02865
406.0000	0.02926
405.0000	0.02998
404.0000	0.03064
403.0000	0.03143
402.0000	0.03212
401.0000	0.03286
400.0000	0.03365
399.0000	0.0343
398.0000	0.03479
397.0000	0.03509
396.0000	0.03535
395.0000	0.03554
394.0000	0.03571
393.0000	0.03581
392.0000	0.03577
391.0000	0.03589
390.0000	0.03592
389.0000	0.03601
388.0000	0.03592
387.0000	0.0358
386.0000	0.03563
385.0000	0.03545
384.0000	0.03529
383.0000	0.03529
382.0000	0.03525
381.0000	0.03527
380.0000	0.03521
379.0000	0.03523
378.0000	0.03522
377.0000	0.03526
376.0000	0.03528
375.0000	0.03538
374.0000	0.03537
373.0000	0.03541
372.0000	0.0355
371.0000	0.03559
370.0000	0.03611
369.0000	0.03649
368.0000	0.0367
367.0000	0.03678
366.0000	0.037
365.0000	0.03739
364.0000	0.0379
363.0000	0.03837
362.0000	0.03896
361.0000	0.03949
360.0000	0.04029
359.0000	0.04104
358.0000	0.04196
357.0000	0.04283
356.0000	0.04385
355.0000	0.04487
354.0000	0.046
353.0000	0.04707
352.0000	0.0484
351.0000	0.04949
350.0000	0.05091
349.0000	0.0524
348.0000	0.05403
347.0000	0.05575
346.0000	0.05771
345.0000	0.05989
344.0000	0.06242
343.0000	0.06525
342.0000	0.06835
341.0000	0.07184
340.0000	0.07728
339.0000	0.08103
338.0000	0.08548
337.0000	0.09094
336.0000	0.09643
335.0000	0.10195
334.0000	0.10744
333.0000	0.11304
332.0000	0.11844
331.0000	0.12346
330.0000	0.12788
329.0000	0.13156
328.0000	0.13472
327.0000	0.13722
326.0000	0.13929
325.0000	0.1411
324.0000	0.14237
323.0000	0.14406
322.0000	0.14555
321.0000	0.14745
320.0000	0.14928
319.0000	0.15142
318.0000	0.15387
317.0000	0.15687
316.0000	0.16012
315.0000	0.16384
314.0000	0.16812
313.0000	0.17339
312.0000	0.18012
311.0000	0.18838
310.0000	0.19877
309.0000	0.21144
308.0000	0.22651
307.0000	0.24421
306.0000	0.26444
305.0000	0.28712
304.0000	0.31202
303.0000	0.33855
302.0000	0.36654
301.0000	0.39602
300.0000	0.42586
299.0000	0.45569
298.0000	0.48439
297.0000	0.51131
296.0000	0.53501
295.0000	0.55462
294.0000	0.56916
293.0000	0.57784
292.0000	0.58046
291.0000	0.57652
290.0000	0.56691
289.0000	0.55254
288.0000	0.53506
287.0000	0.51578
286.0000	0.49564
285.0000	0.47534
284.0000	0.45533
283.0000	0.43581
282.0000	0.41657
281.0000	0.39793
280.0000	0.37979
279.0000	0.36205
278.0000	0.34531
277.0000	0.32926
276.0000	0.31475
275.0000	0.30142
274.0000	0.2895
273.0000	0.27838
272.0000	0.26818
271.0000	0.25881
270.0000	0.24964
269.0000	0.24067
268.0000	0.23163
267.0000	0.22307
266.0000	0.21508
265.0000	0.20813
264.0000	0.20225
263.0000	0.19771
262.0000	0.19453
261.0000	0.19271
260.0000	0.19219
259.0000	0.19301
258.0000	0.19501
257.0000	0.19834
256.0000	0.20299
255.0000	0.20918
254.0000	0.21719
253.0000	0.2269
252.0000	0.23803
251.0000	0.25014
250.0000	0.26234
249.0000	0.27346
248.0000	0.28214
247.0000	0.2872
246.0000	0.28833
245.0000	0.28571
244.0000	0.28033
243.0000	0.27264
242.0000	0.26367
241.0000	0.25382
240.0000	0.24364
239.0000	0.23347
238.0000	0.22354
237.0000	0.21443
236.0000	0.20627
235.0000	0.19925
234.0000	0.19348
233.0000	0.18869
232.0000	0.18517
231.0000	0.18224
230.0000	0.18022
229.0000	0.17861
228.0000	0.17726
227.0000	0.17604
226.0000	0.17477
225.0000	0.17374
224.0000	0.17289
223.0000	0.17248
222.0000	0.17238
221.0000	0.17269
220.0000	0.17333
219.0000	0.17426
218.0000	0.17545
217.0000	0.17673
216.0000	0.17831
215.0000	0.17997
214.0000	0.1819
213.0000	0.1841
212.0000	0.18667
211.0000	0.18974
210.0000	0.19318
209.0000	0.19704
208.0000	0.20142
207.0000	0.20651
206.0000	0.21243
205.0000	0.21939
204.0000	0.22697
203.0000	0.23523
202.0000	0.24364
201.0000	0.25227
200.0000	0.26022
199.0000	0.2676
198.0000	0.27345
197.0000	0.27906
196.0000	0.28366
195.0000	0.28801
194.0000	0.29178
193.0000	0.29397
192.0000	0.29538
191.0000	0.29263
190.0000	0.28104
