TITLE	
DATA TYPE	
ORIGIN	JASCO
OWNER	
DATE	19/09/02
TIME	16:17:28
SPECTROMETER/DATA SYSTEM	JASCO Corp., V-570, Rev. 1.00
RESOLUTION	
DELTAX	-1
XUNITS	NANOMETERS
YUNITS	ABSORBANCE
FIRSTX	840.0000
LASTX	190.0000
NPOINTS	651
FIRSTY	0.00708
MAXY	0.84072
MINY	0.00707
XYDATA
840.0000	0.00708
839.0000	0.00709
838.0000	0.00713
837.0000	0.00724
836.0000	0.00717
835.0000	0.00711
834.0000	0.00707
833.0000	0.00719
832.0000	0.00715
831.0000	0.00721
830.0000	0.00731
829.0000	0.00743
828.0000	0.00751
827.0000	0.00741
826.0000	0.0073
825.0000	0.00717
824.0000	0.00722
823.0000	0.00723
822.0000	0.00739
821.0000	0.00746
820.0000	0.00752
819.0000	0.00744
818.0000	0.0074
817.0000	0.00735
816.0000	0.00732
815.0000	0.00724
814.0000	0.0073
813.0000	0.00729
812.0000	0.0075
811.0000	0.00745
810.0000	0.00765
809.0000	0.0077
808.0000	0.00781
807.0000	0.00786
806.0000	0.00777
805.0000	0.00778
804.0000	0.00774
803.0000	0.00781
802.0000	0.00787
801.0000	0.00786
800.0000	0.00783
799.0000	0.00784
798.0000	0.00789
797.0000	0.0079
796.0000	0.0079
795.0000	0.00793
794.0000	0.00808
793.0000	0.00816
792.0000	0.00823
791.0000	0.00827
790.0000	0.00826
789.0000	0.00824
788.0000	0.00834
787.0000	0.00846
786.0000	0.00857
785.0000	0.00857
784.0000	0.00855
783.0000	0.0086
782.0000	0.00874
781.0000	0.00871
780.0000	0.00878
779.0000	0.00871
778.0000	0.0089
777.0000	0.00896
776.0000	0.00907
775.0000	0.00905
774.0000	0.00908
773.0000	0.00915
772.0000	0.00927
771.0000	0.00932
770.0000	0.00925
769.0000	0.00928
768.0000	0.00931
767.0000	0.00942
766.0000	0.00949
765.0000	0.00954
764.0000	0.00968
763.0000	0.00981
762.0000	0.00995
761.0000	0.00997
760.0000	0.01006
759.0000	0.01001
758.0000	0.01011
757.0000	0.01028
756.0000	0.01039
755.0000	0.01045
754.0000	0.01046
753.0000	0.01058
752.0000	0.01068
751.0000	0.01085
750.0000	0.01096
749.0000	0.01116
748.0000	0.0113
747.0000	0.0114
746.0000	0.01157
745.0000	0.01171
744.0000	0.01189
743.0000	0.01196
742.0000	0.0121
741.0000	0.01228
740.0000	0.01248
739.0000	0.0126
738.0000	0.01281
737.0000	0.01307
736.0000	0.01337
735.0000	0.01356
734.0000	0.01376
733.0000	0.01408
732.0000	0.01441
731.0000	0.01473
730.0000	0.0151
729.0000	0.01544
728.0000	0.01584
727.0000	0.01628
726.0000	0.01676
725.0000	0.01731
724.0000	0.01786
723.0000	0.01842
722.0000	0.01915
721.0000	0.01992
720.0000	0.02077
719.0000	0.02162
718.0000	0.02256
717.0000	0.02362
716.0000	0.02486
715.0000	0.02622
714.0000	0.02769
713.0000	0.02926
712.0000	0.03108
711.0000	0.03322
710.0000	0.03552
709.0000	0.03802
708.0000	0.04083
707.0000	0.04396
706.0000	0.04749
705.0000	0.05147
704.0000	0.05586
703.0000	0.06082
702.0000	0.06628
701.0000	0.07253
700.0000	0.07942
699.0000	0.08704
698.0000	0.09545
697.0000	0.10484
696.0000	0.11532
695.0000	0.1269
694.0000	0.13971
693.0000	0.15383
692.0000	0.16938
691.0000	0.18649
690.0000	0.20528
689.0000	0.22579
688.0000	0.2481
687.0000	0.27224
686.0000	0.29829
685.0000	0.32624
684.0000	0.35585
683.0000	0.38705
682.0000	0.41955
681.0000	0.45345
680.0000	0.48842
679.0000	0.52389
678.0000	0.55924
677.0000	0.59387
676.0000	0.62744
675.0000	0.65972
674.0000	0.69025
673.0000	0.71853
672.0000	0.7443
671.0000	0.76711
670.0000	0.78689
669.0000	0.80346
668.0000	0.81677
667.0000	0.82701
666.0000	0.83424
665.0000	0.83881
664.0000	0.84072
663.0000	0.84043
662.0000	0.83826
661.0000	0.83437
660.0000	0.82894
659.0000	0.82213
658.0000	0.8143
657.0000	0.80552
656.0000	0.79591
655.0000	0.78553
654.0000	0.77447
653.0000	0.7628
652.0000	0.75057
651.0000	0.73782
650.0000	0.7247
649.0000	0.71115
648.0000	0.69731
647.0000	0.68326
646.0000	0.66905
645.0000	0.6549
644.0000	0.64081
643.0000	0.62703
642.0000	0.61361
641.0000	0.60063
640.0000	0.58808
639.0000	0.5761
638.0000	0.56463
637.0000	0.55386
636.0000	0.54366
635.0000	0.53419
634.0000	0.52534
633.0000	0.51723
632.0000	0.50977
631.0000	0.50304
630.0000	0.49688
629.0000	0.49143
628.0000	0.48654
627.0000	0.48229
626.0000	0.47857
625.0000	0.47548
624.0000	0.47288
623.0000	0.47057
622.0000	0.46864
621.0000	0.46695
620.0000	0.46548
619.0000	0.46397
618.0000	0.46241
617.0000	0.46076
616.0000	0.45894
615.0000	0.45688
614.0000	0.45438
613.0000	0.45148
612.0000	0.44807
611.0000	0.44403
610.0000	0.43935
609.0000	0.43406
608.0000	0.42816
607.0000	0.42168
606.0000	0.41457
605.0000	0.40694
604.0000	0.3988
603.0000	0.39018
602.0000	0.38125
601.0000	0.37202
600.0000	0.3626
599.0000	0.35303
598.0000	0.34337
597.0000	0.33374
596.0000	0.32413
595.0000	0.31455
594.0000	0.30503
593.0000	0.29571
592.0000	0.28656
591.0000	0.27766
590.0000	0.26889
589.0000	0.26035
588.0000	0.25209
587.0000	0.24411
586.0000	0.2364
585.0000	0.22896
584.0000	0.22186
583.0000	0.21496
582.0000	0.20833
581.0000	0.20198
580.0000	0.19592
579.0000	0.19013
578.0000	0.18459
577.0000	0.17928
576.0000	0.17425
575.0000	0.16944
574.0000	0.16487
573.0000	0.16046
572.0000	0.15622
571.0000	0.15216
570.0000	0.14831
569.0000	0.14458
568.0000	0.14098
567.0000	0.13743
566.0000	0.13404
565.0000	0.13076
564.0000	0.12759
563.0000	0.12447
562.0000	0.1214
561.0000	0.11835
560.0000	0.11537
559.0000	0.11245
558.0000	0.10962
557.0000	0.10686
556.0000	0.10416
555.0000	0.10149
554.0000	0.09886
553.0000	0.0963
552.0000	0.09374
551.0000	0.09126
550.0000	0.08884
549.0000	0.08658
548.0000	0.08444
547.0000	0.08241
546.0000	0.08039
545.0000	0.07841
544.0000	0.07658
543.0000	0.07483
542.0000	0.07313
541.0000	0.07153
540.0000	0.06998
539.0000	0.06855
538.0000	0.06719
537.0000	0.06592
536.0000	0.06473
535.0000	0.06363
534.0000	0.06254
533.0000	0.06154
532.0000	0.06057
531.0000	0.0597
530.0000	0.05885
529.0000	0.05811
528.0000	0.05744
527.0000	0.05682
526.0000	0.05632
525.0000	0.0558
524.0000	0.05531
523.0000	0.05483
522.0000	0.05443
521.0000	0.0541
520.0000	0.05366
519.0000	0.05348
518.0000	0.05334
517.0000	0.0531
516.0000	0.05289
515.0000	0.05269
514.0000	0.05258
513.0000	0.05251
512.0000	0.05245
511.0000	0.05246
510.0000	0.05244
509.0000	0.05243
508.0000	0.05236
507.0000	0.05237
506.0000	0.05231
505.0000	0.05229
504.0000	0.05224
503.0000	0.05221
502.0000	0.05214
501.0000	0.05207
500.0000	0.05194
499.0000	0.05178
498.0000	0.05147
497.0000	0.05126
496.0000	0.05107
495.0000	0.05092
494.0000	0.0507
493.0000	0.05043
492.0000	0.05006
491.0000	0.04969
490.0000	0.04924
489.0000	0.04885
488.0000	0.04839
487.0000	0.04796
486.0000	0.0475
485.0000	0.04708
484.0000	0.04653
483.0000	0.04606
482.0000	0.04553
481.0000	0.04495
480.0000	0.04445
479.0000	0.04391
478.0000	0.04343
477.0000	0.04293
476.0000	0.04243
475.0000	0.04197
474.0000	0.04149
473.0000	0.04101
472.0000	0.04052
471.0000	0.04007
470.0000	0.03955
469.0000	0.03903
468.0000	0.03858
467.0000	0.03808
466.0000	0.03761
465.0000	0.03717
464.0000	0.03667
463.0000	0.03625
462.0000	0.03584
461.0000	0.03543
460.0000	0.03499
459.0000	0.0345
458.0000	0.03399
457.0000	0.03345
456.0000	0.03308
455.0000	0.03266
454.0000	0.03223
453.0000	0.03174
452.0000	0.03137
451.0000	0.03094
450.0000	0.03057
449.0000	0.03011
448.0000	0.02977
447.0000	0.02935
446.0000	0.02908
445.0000	0.02874
444.0000	0.02842
443.0000	0.02807
442.0000	0.02777
441.0000	0.02748
440.0000	0.02716
439.0000	0.02687
438.0000	0.02657
437.0000	0.02637
436.0000	0.02616
435.0000	0.02598
434.0000	0.02579
433.0000	0.02565
432.0000	0.02543
431.0000	0.02521
430.0000	0.02494
429.0000	0.02483
428.0000	0.02471
427.0000	0.02455
426.0000	0.02436
425.0000	0.02413
424.0000	0.02401
423.0000	0.02404
422.0000	0.02415
421.0000	0.02419
420.0000	0.02429
419.0000	0.02438
418.0000	0.02446
417.0000	0.02443
416.0000	0.02444
415.0000	0.02461
414.0000	0.02491
413.0000	0.02524
412.0000	0.02563
411.0000	0.02593
410.0000	0.02631
409.0000	0.02677
408.0000	0.02733
407.0000	0.02804
406.0000	0.02859
405.0000	0.02926
404.0000	0.02986
403.0000	0.0306
402.0000	0.03126
401.0000	0.03185
400.0000	0.03251
399.0000	0.0331
398.0000	0.03363
397.0000	0.03397
396.0000	0.03416
395.0000	0.03445
394.0000	0.0347
393.0000	0.03484
392.0000	0.0349
391.0000	0.035
390.0000	0.03519
389.0000	0.0353
388.0000	0.03532
387.0000	0.03522
386.0000	0.0353
385.0000	0.03524
384.0000	0.03531
383.0000	0.0353
382.0000	0.0353
381.0000	0.03539
380.0000	0.03544
379.0000	0.03558
378.0000	0.03576
377.0000	0.03582
376.0000	0.03599
375.0000	0.0361
374.0000	0.03623
373.0000	0.03639
372.0000	0.03661
371.0000	0.03675
370.0000	0.03725
369.0000	0.03775
368.0000	0.03809
367.0000	0.03834
366.0000	0.03857
365.0000	0.03909
364.0000	0.03966
363.0000	0.04018
362.0000	0.04083
361.0000	0.04135
360.0000	0.04206
359.0000	0.04282
358.0000	0.0437
357.0000	0.04471
356.0000	0.04575
355.0000	0.04677
354.0000	0.04792
353.0000	0.0491
352.0000	0.05039
351.0000	0.05165
350.0000	0.05297
349.0000	0.05445
348.0000	0.0559
347.0000	0.0576
346.0000	0.05954
345.0000	0.06169
344.0000	0.06397
343.0000	0.0666
342.0000	0.06947
341.0000	0.07269
340.0000	0.07762
339.0000	0.08093
338.0000	0.08492
337.0000	0.08958
336.0000	0.09436
335.0000	0.09907
334.0000	0.10397
333.0000	0.10884
332.0000	0.11349
331.0000	0.11786
330.0000	0.1217
329.0000	0.12499
328.0000	0.12763
327.0000	0.12983
326.0000	0.13153
325.0000	0.13307
324.0000	0.13431
323.0000	0.13569
322.0000	0.13702
321.0000	0.13862
320.0000	0.14021
319.0000	0.1422
318.0000	0.14437
317.0000	0.1468
316.0000	0.14933
315.0000	0.15243
314.0000	0.15584
313.0000	0.16037
312.0000	0.16584
311.0000	0.1727
310.0000	0.18132
309.0000	0.19189
308.0000	0.20457
307.0000	0.21935
306.0000	0.23616
305.0000	0.25505
304.0000	0.27563
303.0000	0.29774
302.0000	0.32099
301.0000	0.34542
300.0000	0.3702
299.0000	0.39497
298.0000	0.41896
297.0000	0.44118
296.0000	0.46097
295.0000	0.47734
294.0000	0.48967
293.0000	0.49723
292.0000	0.49929
291.0000	0.49606
290.0000	0.48805
289.0000	0.47624
288.0000	0.46171
287.0000	0.44536
286.0000	0.42842
285.0000	0.41179
284.0000	0.3954
283.0000	0.3795
282.0000	0.36378
281.0000	0.3484
280.0000	0.33341
279.0000	0.31899
278.0000	0.30536
277.0000	0.2924
276.0000	0.28044
275.0000	0.26964
274.0000	0.25964
273.0000	0.25065
272.0000	0.24235
271.0000	0.23474
270.0000	0.22731
269.0000	0.22004
268.0000	0.21298
267.0000	0.20613
266.0000	0.19964
265.0000	0.19388
264.0000	0.18926
263.0000	0.18582
262.0000	0.18342
261.0000	0.18196
260.0000	0.18153
259.0000	0.18226
258.0000	0.18395
257.0000	0.18665
256.0000	0.19051
255.0000	0.1957
254.0000	0.20237
253.0000	0.21032
252.0000	0.21964
251.0000	0.2297
250.0000	0.23982
249.0000	0.24908
248.0000	0.25645
247.0000	0.26089
246.0000	0.26208
245.0000	0.26003
244.0000	0.25583
243.0000	0.24982
242.0000	0.24264
241.0000	0.23467
240.0000	0.2265
239.0000	0.21837
238.0000	0.21044
237.0000	0.2033
236.0000	0.1969
235.0000	0.19155
234.0000	0.1872
233.0000	0.18361
232.0000	0.18099
231.0000	0.17912
230.0000	0.17776
229.0000	0.17692
228.0000	0.1763
227.0000	0.17571
226.0000	0.1751
225.0000	0.1746
224.0000	0.17443
223.0000	0.17447
222.0000	0.17473
221.0000	0.17513
220.0000	0.17585
219.0000	0.17709
218.0000	0.1784
217.0000	0.17973
216.0000	0.18118
215.0000	0.18298
214.0000	0.18487
213.0000	0.18705
212.0000	0.18938
211.0000	0.19234
210.0000	0.19537
209.0000	0.19882
208.0000	0.20248
207.0000	0.20685
206.0000	0.21204
205.0000	0.21786
204.0000	0.22439
203.0000	0.23149
202.0000	0.23854
201.0000	0.24556
200.0000	0.25197
199.0000	0.25762
198.0000	0.26218
197.0000	0.26671
196.0000	0.27112
195.0000	0.27484
194.0000	0.27756
193.0000	0.27856
192.0000	0.27944
191.0000	0.27556
190.0000	0.26693
