TITLE	
DATA TYPE	
ORIGIN	JASCO
OWNER	
DATE	19/08/31
TIME	15:50:59
SPECTROMETER/DATA SYSTEM	JASCO Corp., V-570, Rev. 1.00
RESOLUTION	
DELTAX	-1
XUNITS	NANOMETERS
YUNITS	ABSORBANCE
FIRSTX	840.0000
LASTX	190.0000
NPOINTS	651
FIRSTY	0.01402
MAXY	0.45860
MINY	0.01368
XYDATA
840.0000	0.01402
839.0000	0.01396
838.0000	0.01377
837.0000	0.01372
836.0000	0.01368
835.0000	0.01377
834.0000	0.01377
833.0000	0.01382
832.0000	0.01393
831.0000	0.01396
830.0000	0.01405
829.0000	0.01407
828.0000	0.01408
827.0000	0.01408
826.0000	0.01419
825.0000	0.01422
824.0000	0.01435
823.0000	0.01442
822.0000	0.01446
821.0000	0.01455
820.0000	0.01461
819.0000	0.01468
818.0000	0.01478
817.0000	0.01484
816.0000	0.01493
815.0000	0.01503
814.0000	0.01512
813.0000	0.01512
812.0000	0.01531
811.0000	0.0154
810.0000	0.01541
809.0000	0.01558
808.0000	0.01577
807.0000	0.01594
806.0000	0.01605
805.0000	0.01611
804.0000	0.01619
803.0000	0.01623
802.0000	0.01627
801.0000	0.01645
800.0000	0.01655
799.0000	0.01662
798.0000	0.01672
797.0000	0.01672
796.0000	0.01674
795.0000	0.01677
794.0000	0.01683
793.0000	0.01696
792.0000	0.01693
791.0000	0.01707
790.0000	0.01696
789.0000	0.01699
788.0000	0.01704
787.0000	0.01707
786.0000	0.01713
785.0000	0.0172
784.0000	0.01721
783.0000	0.01727
782.0000	0.0173
781.0000	0.01731
780.0000	0.01743
779.0000	0.01736
778.0000	0.01739
777.0000	0.01738
776.0000	0.01738
775.0000	0.01738
774.0000	0.01734
773.0000	0.01732
772.0000	0.01738
771.0000	0.01729
770.0000	0.01724
769.0000	0.01715
768.0000	0.01717
767.0000	0.01724
766.0000	0.01725
765.0000	0.01729
764.0000	0.01718
763.0000	0.01725
762.0000	0.01731
761.0000	0.01738
760.0000	0.01742
759.0000	0.01738
758.0000	0.01739
757.0000	0.01741
756.0000	0.01749
755.0000	0.01749
754.0000	0.01749
753.0000	0.01758
752.0000	0.01759
751.0000	0.01771
750.0000	0.01772
749.0000	0.01778
748.0000	0.01777
747.0000	0.01783
746.0000	0.0178
745.0000	0.01783
744.0000	0.01785
743.0000	0.01795
742.0000	0.0181
741.0000	0.01815
740.0000	0.01821
739.0000	0.01825
738.0000	0.01834
737.0000	0.01841
736.0000	0.01849
735.0000	0.01855
734.0000	0.0186
733.0000	0.01883
732.0000	0.019
731.0000	0.01919
730.0000	0.01927
729.0000	0.01933
728.0000	0.01949
727.0000	0.0197
726.0000	0.01989
725.0000	0.02012
724.0000	0.02036
723.0000	0.02055
722.0000	0.02084
721.0000	0.02117
720.0000	0.0216
719.0000	0.02202
718.0000	0.0225
717.0000	0.02299
716.0000	0.0235
715.0000	0.02413
714.0000	0.02483
713.0000	0.02551
712.0000	0.02632
711.0000	0.02721
710.0000	0.02823
709.0000	0.02926
708.0000	0.03046
707.0000	0.03178
706.0000	0.03329
705.0000	0.03501
704.0000	0.03694
703.0000	0.03912
702.0000	0.04149
701.0000	0.04406
700.0000	0.04698
699.0000	0.05024
698.0000	0.05389
697.0000	0.0579
696.0000	0.06237
695.0000	0.06722
694.0000	0.07264
693.0000	0.07861
692.0000	0.08516
691.0000	0.09238
690.0000	0.1003
689.0000	0.10897
688.0000	0.11843
687.0000	0.12864
686.0000	0.13964
685.0000	0.15149
684.0000	0.16413
683.0000	0.17738
682.0000	0.19124
681.0000	0.20564
680.0000	0.22053
679.0000	0.23567
678.0000	0.25082
677.0000	0.26579
676.0000	0.28039
675.0000	0.29445
674.0000	0.30788
673.0000	0.32043
672.0000	0.33201
671.0000	0.34256
670.0000	0.35194
669.0000	0.36024
668.0000	0.36728
667.0000	0.37313
666.0000	0.37783
665.0000	0.38148
664.0000	0.38418
663.0000	0.38592
662.0000	0.38692
661.0000	0.38715
660.0000	0.38677
659.0000	0.38572
658.0000	0.38412
657.0000	0.38199
656.0000	0.37937
655.0000	0.37637
654.0000	0.373
653.0000	0.3692
652.0000	0.36503
651.0000	0.36043
650.0000	0.35555
649.0000	0.35041
648.0000	0.34506
647.0000	0.33948
646.0000	0.33388
645.0000	0.32814
644.0000	0.32238
643.0000	0.31661
642.0000	0.31085
641.0000	0.30525
640.0000	0.29976
639.0000	0.29447
638.0000	0.28928
637.0000	0.2843
636.0000	0.27957
635.0000	0.275
634.0000	0.27073
633.0000	0.26669
632.0000	0.26295
631.0000	0.25939
630.0000	0.25607
629.0000	0.25303
628.0000	0.25021
627.0000	0.24763
626.0000	0.24516
625.0000	0.24293
624.0000	0.24094
623.0000	0.23906
622.0000	0.23731
621.0000	0.23571
620.0000	0.23424
619.0000	0.23284
618.0000	0.2315
617.0000	0.23009
616.0000	0.2286
615.0000	0.22707
614.0000	0.22544
613.0000	0.22366
612.0000	0.22168
611.0000	0.21954
610.0000	0.21719
609.0000	0.21466
608.0000	0.21194
607.0000	0.20902
606.0000	0.20592
605.0000	0.20267
604.0000	0.19917
603.0000	0.19559
602.0000	0.19189
601.0000	0.18814
600.0000	0.18426
599.0000	0.18031
598.0000	0.17632
597.0000	0.17227
596.0000	0.16824
595.0000	0.16414
594.0000	0.16015
593.0000	0.15614
592.0000	0.15225
591.0000	0.14839
590.0000	0.14468
589.0000	0.14099
588.0000	0.13743
587.0000	0.13393
586.0000	0.13057
585.0000	0.12723
584.0000	0.12399
583.0000	0.1208
582.0000	0.11777
581.0000	0.11485
580.0000	0.11209
579.0000	0.10948
578.0000	0.10689
577.0000	0.10451
576.0000	0.10213
575.0000	0.09998
574.0000	0.0978
573.0000	0.09574
572.0000	0.09374
571.0000	0.09182
570.0000	0.08992
569.0000	0.08803
568.0000	0.08627
567.0000	0.08464
566.0000	0.08305
565.0000	0.0815
564.0000	0.07999
563.0000	0.07862
562.0000	0.07723
561.0000	0.07592
560.0000	0.07452
559.0000	0.07318
558.0000	0.07185
557.0000	0.07061
556.0000	0.06931
555.0000	0.06814
554.0000	0.06694
553.0000	0.06583
552.0000	0.06476
551.0000	0.06371
550.0000	0.06268
549.0000	0.06172
548.0000	0.06075
547.0000	0.05983
546.0000	0.05889
545.0000	0.05802
544.0000	0.05724
543.0000	0.05649
542.0000	0.05573
541.0000	0.05504
540.0000	0.05441
539.0000	0.05384
538.0000	0.05325
537.0000	0.05271
536.0000	0.05221
535.0000	0.05163
534.0000	0.0512
533.0000	0.05074
532.0000	0.05041
531.0000	0.05006
530.0000	0.0497
529.0000	0.0495
528.0000	0.04926
527.0000	0.04905
526.0000	0.04875
525.0000	0.04851
524.0000	0.04827
523.0000	0.04806
522.0000	0.04793
521.0000	0.0478
520.0000	0.04767
519.0000	0.04762
518.0000	0.04763
517.0000	0.04762
516.0000	0.04758
515.0000	0.04754
514.0000	0.04747
513.0000	0.04738
512.0000	0.04741
511.0000	0.04746
510.0000	0.04749
509.0000	0.04757
508.0000	0.0476
507.0000	0.04766
506.0000	0.04769
505.0000	0.04773
504.0000	0.04775
503.0000	0.04771
502.0000	0.04769
501.0000	0.04766
500.0000	0.04761
499.0000	0.04767
498.0000	0.04777
497.0000	0.04778
496.0000	0.04771
495.0000	0.04757
494.0000	0.04746
493.0000	0.04733
492.0000	0.04722
491.0000	0.04716
490.0000	0.04713
489.0000	0.04701
488.0000	0.04687
487.0000	0.04666
486.0000	0.04653
485.0000	0.04634
484.0000	0.04618
483.0000	0.04598
482.0000	0.04581
481.0000	0.04566
480.0000	0.04553
479.0000	0.04535
478.0000	0.04518
477.0000	0.045
476.0000	0.04479
475.0000	0.04457
474.0000	0.0444
473.0000	0.04425
472.0000	0.04409
471.0000	0.04399
470.0000	0.04386
469.0000	0.04367
468.0000	0.04345
467.0000	0.04324
466.0000	0.04308
465.0000	0.04291
464.0000	0.04281
463.0000	0.0427
462.0000	0.04255
461.0000	0.04236
460.0000	0.04219
459.0000	0.04203
458.0000	0.04187
457.0000	0.04174
456.0000	0.04158
455.0000	0.04147
454.0000	0.04129
453.0000	0.04117
452.0000	0.04103
451.0000	0.04099
450.0000	0.04081
449.0000	0.04072
448.0000	0.04058
447.0000	0.04057
446.0000	0.04047
445.0000	0.0404
444.0000	0.04028
443.0000	0.0402
442.0000	0.04012
441.0000	0.04011
440.0000	0.04012
439.0000	0.04007
438.0000	0.04
437.0000	0.03989
436.0000	0.0398
435.0000	0.03975
434.0000	0.03981
433.0000	0.03982
432.0000	0.03992
431.0000	0.03995
430.0000	0.03989
429.0000	0.03986
428.0000	0.03982
427.0000	0.03986
426.0000	0.03995
425.0000	0.03999
424.0000	0.03998
423.0000	0.04005
422.0000	0.04014
421.0000	0.04021
420.0000	0.04039
419.0000	0.04056
418.0000	0.04072
417.0000	0.04085
416.0000	0.04102
415.0000	0.04127
414.0000	0.04152
413.0000	0.0418
412.0000	0.04203
411.0000	0.04225
410.0000	0.04264
409.0000	0.04297
408.0000	0.0434
407.0000	0.04375
406.0000	0.0442
405.0000	0.04455
404.0000	0.04505
403.0000	0.04554
402.0000	0.04602
401.0000	0.04649
400.0000	0.04707
399.0000	0.04772
398.0000	0.04818
397.0000	0.04855
396.0000	0.04869
395.0000	0.04897
394.0000	0.04934
393.0000	0.0497
392.0000	0.04997
391.0000	0.05026
390.0000	0.0506
389.0000	0.05094
388.0000	0.05133
387.0000	0.0516
386.0000	0.0518
385.0000	0.05209
384.0000	0.05245
383.0000	0.0528
382.0000	0.05306
381.0000	0.05333
380.0000	0.05371
379.0000	0.05413
378.0000	0.05461
377.0000	0.05496
376.0000	0.05531
375.0000	0.05571
374.0000	0.05618
373.0000	0.05666
372.0000	0.05706
371.0000	0.05747
370.0000	0.05824
369.0000	0.05879
368.0000	0.05934
367.0000	0.05998
366.0000	0.06048
365.0000	0.06108
364.0000	0.06171
363.0000	0.06244
362.0000	0.06316
361.0000	0.06387
360.0000	0.0648
359.0000	0.06568
358.0000	0.06663
357.0000	0.06752
356.0000	0.06843
355.0000	0.06951
354.0000	0.0706
353.0000	0.07177
352.0000	0.07277
351.0000	0.07398
350.0000	0.07535
349.0000	0.07683
348.0000	0.07827
347.0000	0.07974
346.0000	0.08143
345.0000	0.0831
344.0000	0.0849
343.0000	0.08676
342.0000	0.0889
341.0000	0.09122
340.0000	0.09451
339.0000	0.09633
338.0000	0.0986
337.0000	0.10129
336.0000	0.10427
335.0000	0.10738
334.0000	0.11043
333.0000	0.11344
332.0000	0.1162
331.0000	0.11868
330.0000	0.12117
329.0000	0.12335
328.0000	0.12535
327.0000	0.1273
326.0000	0.12867
325.0000	0.13014
324.0000	0.13132
323.0000	0.13245
322.0000	0.13331
321.0000	0.13457
320.0000	0.13594
319.0000	0.13742
318.0000	0.13875
317.0000	0.14019
316.0000	0.14195
315.0000	0.14363
314.0000	0.14558
313.0000	0.148
312.0000	0.151
311.0000	0.15451
310.0000	0.15864
309.0000	0.16359
308.0000	0.16954
307.0000	0.17658
306.0000	0.18467
305.0000	0.1936
304.0000	0.20311
303.0000	0.21355
302.0000	0.22466
301.0000	0.23635
300.0000	0.2483
299.0000	0.26001
298.0000	0.27145
297.0000	0.28218
296.0000	0.29202
295.0000	0.30045
294.0000	0.30697
293.0000	0.31126
292.0000	0.31314
291.0000	0.31244
290.0000	0.30969
289.0000	0.30506
288.0000	0.29919
287.0000	0.29224
286.0000	0.28493
285.0000	0.27766
284.0000	0.27067
283.0000	0.26378
282.0000	0.25702
281.0000	0.25031
280.0000	0.24391
279.0000	0.23793
278.0000	0.23211
277.0000	0.22652
276.0000	0.22143
275.0000	0.21665
274.0000	0.21265
273.0000	0.20902
272.0000	0.20585
271.0000	0.20285
270.0000	0.19993
269.0000	0.1971
268.0000	0.19426
267.0000	0.19159
266.0000	0.18916
265.0000	0.18706
264.0000	0.18535
263.0000	0.18401
262.0000	0.18315
261.0000	0.18285
260.0000	0.18287
259.0000	0.18339
258.0000	0.18435
257.0000	0.18589
256.0000	0.18802
255.0000	0.19043
254.0000	0.19352
253.0000	0.19718
252.0000	0.20157
251.0000	0.20627
250.0000	0.21124
249.0000	0.21588
248.0000	0.21974
247.0000	0.2224
246.0000	0.2236
245.0000	0.22364
244.0000	0.22245
243.0000	0.22045
242.0000	0.21795
241.0000	0.21549
240.0000	0.21283
239.0000	0.21039
238.0000	0.20824
237.0000	0.20652
236.0000	0.20548
235.0000	0.20528
234.0000	0.20594
233.0000	0.20735
232.0000	0.20959
231.0000	0.21243
230.0000	0.21589
229.0000	0.21982
228.0000	0.22432
227.0000	0.22966
226.0000	0.23546
225.0000	0.24176
224.0000	0.24856
223.0000	0.25574
222.0000	0.26365
221.0000	0.27212
220.0000	0.28112
219.0000	0.29065
218.0000	0.30063
217.0000	0.3107
216.0000	0.32091
215.0000	0.33114
214.0000	0.34129
213.0000	0.35161
212.0000	0.36165
211.0000	0.37139
210.0000	0.3803
209.0000	0.38887
208.0000	0.39677
207.0000	0.40443
206.0000	0.41175
205.0000	0.41919
204.0000	0.42662
203.0000	0.43419
202.0000	0.44136
201.0000	0.44772
200.0000	0.45273
199.0000	0.45619
198.0000	0.45801
197.0000	0.4586
196.0000	0.45752
195.0000	0.45506
194.0000	0.44995
193.0000	0.44313
192.0000	0.43064
191.0000	0.41123
190.0000	0.38037
