TITLE	
DATA TYPE	
ORIGIN	JASCO
OWNER	
DATE	19/08/31
TIME	16:10:24
SPECTROMETER/DATA SYSTEM	JASCO Corp., V-570, Rev. 1.00
RESOLUTION	
DELTAX	-1
XUNITS	NANOMETERS
YUNITS	ABSORBANCE
FIRSTX	840.0000
LASTX	190.0000
NPOINTS	651
FIRSTY	0.01117
MAXY	0.45682
MINY	0.01117
XYDATA
840.0000	0.01117
839.0000	0.0112
838.0000	0.01122
837.0000	0.01123
836.0000	0.01117
835.0000	0.01126
834.0000	0.01127
833.0000	0.01147
832.0000	0.01144
831.0000	0.01156
830.0000	0.01157
829.0000	0.01169
828.0000	0.01165
827.0000	0.01164
826.0000	0.01163
825.0000	0.01168
824.0000	0.01178
823.0000	0.0118
822.0000	0.01181
821.0000	0.01176
820.0000	0.01176
819.0000	0.01183
818.0000	0.01195
817.0000	0.01192
816.0000	0.01197
815.0000	0.01193
814.0000	0.012
813.0000	0.01194
812.0000	0.01211
811.0000	0.01216
810.0000	0.01217
809.0000	0.01216
808.0000	0.01222
807.0000	0.01235
806.0000	0.01244
805.0000	0.01253
804.0000	0.01255
803.0000	0.01254
802.0000	0.01258
801.0000	0.01268
800.0000	0.01278
799.0000	0.01278
798.0000	0.01274
797.0000	0.01273
796.0000	0.0127
795.0000	0.01269
794.0000	0.01273
793.0000	0.01285
792.0000	0.01288
791.0000	0.01301
790.0000	0.01295
789.0000	0.01296
788.0000	0.01289
787.0000	0.01299
786.0000	0.01301
785.0000	0.01317
784.0000	0.01325
783.0000	0.01327
782.0000	0.01333
781.0000	0.01331
780.0000	0.01341
779.0000	0.01347
778.0000	0.01355
777.0000	0.01356
776.0000	0.01353
775.0000	0.01352
774.0000	0.01357
773.0000	0.01366
772.0000	0.0137
771.0000	0.0137
770.0000	0.01365
769.0000	0.01362
768.0000	0.01361
767.0000	0.01378
766.0000	0.01389
765.0000	0.01396
764.0000	0.0139
763.0000	0.01394
762.0000	0.01399
761.0000	0.01403
760.0000	0.01416
759.0000	0.01412
758.0000	0.01417
757.0000	0.0142
756.0000	0.01432
755.0000	0.01427
754.0000	0.01433
753.0000	0.0144
752.0000	0.01444
751.0000	0.01457
750.0000	0.01458
749.0000	0.01465
748.0000	0.01459
747.0000	0.01468
746.0000	0.01463
745.0000	0.01467
744.0000	0.01472
743.0000	0.01484
742.0000	0.01492
741.0000	0.01488
740.0000	0.0149
739.0000	0.01491
738.0000	0.015
737.0000	0.01499
736.0000	0.01507
735.0000	0.01506
734.0000	0.01506
733.0000	0.01521
732.0000	0.01536
731.0000	0.01541
730.0000	0.01544
729.0000	0.01545
728.0000	0.01548
727.0000	0.01549
726.0000	0.01557
725.0000	0.01562
724.0000	0.01571
723.0000	0.01576
722.0000	0.01587
721.0000	0.01599
720.0000	0.01605
719.0000	0.01616
718.0000	0.01631
717.0000	0.0165
716.0000	0.01659
715.0000	0.01682
714.0000	0.01695
713.0000	0.01713
712.0000	0.01725
711.0000	0.01742
710.0000	0.01761
709.0000	0.01779
708.0000	0.01798
707.0000	0.01815
706.0000	0.01836
705.0000	0.0186
704.0000	0.01893
703.0000	0.01932
702.0000	0.01968
701.0000	0.02004
700.0000	0.02042
699.0000	0.0209
698.0000	0.02142
697.0000	0.022
696.0000	0.02258
695.0000	0.0232
694.0000	0.02392
693.0000	0.02464
692.0000	0.02547
691.0000	0.02633
690.0000	0.02732
689.0000	0.0284
688.0000	0.02955
687.0000	0.03083
686.0000	0.03218
685.0000	0.03376
684.0000	0.03547
683.0000	0.03727
682.0000	0.03908
681.0000	0.04103
680.0000	0.04306
679.0000	0.04521
678.0000	0.04732
677.0000	0.04944
676.0000	0.05152
675.0000	0.05357
674.0000	0.05557
673.0000	0.05752
672.0000	0.05946
671.0000	0.06135
670.0000	0.06313
669.0000	0.06486
668.0000	0.06649
667.0000	0.06805
666.0000	0.06949
665.0000	0.0709
664.0000	0.07223
663.0000	0.07342
662.0000	0.07457
661.0000	0.07563
660.0000	0.07663
659.0000	0.07751
658.0000	0.0783
657.0000	0.07893
656.0000	0.07947
655.0000	0.07992
654.0000	0.08026
653.0000	0.08052
652.0000	0.08063
651.0000	0.08067
650.0000	0.08063
649.0000	0.0806
648.0000	0.08045
647.0000	0.0802
646.0000	0.07995
645.0000	0.07961
644.0000	0.0792
643.0000	0.07875
642.0000	0.07827
641.0000	0.07776
640.0000	0.07729
639.0000	0.07675
638.0000	0.0762
637.0000	0.0756
636.0000	0.07496
635.0000	0.07435
634.0000	0.07376
633.0000	0.07322
632.0000	0.07272
631.0000	0.07215
630.0000	0.07156
629.0000	0.07102
628.0000	0.07053
627.0000	0.07007
626.0000	0.06952
625.0000	0.06895
624.0000	0.06841
623.0000	0.06791
622.0000	0.06739
621.0000	0.06694
620.0000	0.06651
619.0000	0.06609
618.0000	0.06569
617.0000	0.0653
616.0000	0.06492
615.0000	0.06452
614.0000	0.06411
613.0000	0.06368
612.0000	0.06324
611.0000	0.06277
610.0000	0.06234
609.0000	0.06182
608.0000	0.06127
607.0000	0.06075
606.0000	0.06025
605.0000	0.05977
604.0000	0.05918
603.0000	0.05859
602.0000	0.05803
601.0000	0.05748
600.0000	0.05695
599.0000	0.05636
598.0000	0.05572
597.0000	0.05508
596.0000	0.0544
595.0000	0.05373
594.0000	0.05304
593.0000	0.05237
592.0000	0.0517
591.0000	0.0511
590.0000	0.05053
589.0000	0.04996
588.0000	0.04938
587.0000	0.04877
586.0000	0.04819
585.0000	0.04755
584.0000	0.04694
583.0000	0.04631
582.0000	0.04575
581.0000	0.04517
580.0000	0.04461
579.0000	0.04406
578.0000	0.04353
577.0000	0.04313
576.0000	0.04264
575.0000	0.04224
574.0000	0.04176
573.0000	0.0413
572.0000	0.04096
571.0000	0.04059
570.0000	0.0402
569.0000	0.03971
568.0000	0.03928
567.0000	0.03889
566.0000	0.03852
565.0000	0.03819
564.0000	0.0379
563.0000	0.0377
562.0000	0.03746
561.0000	0.03724
560.0000	0.03699
559.0000	0.03671
558.0000	0.03641
557.0000	0.03618
556.0000	0.03586
555.0000	0.03564
554.0000	0.03539
553.0000	0.03518
552.0000	0.03501
551.0000	0.03486
550.0000	0.03469
549.0000	0.03458
548.0000	0.03442
547.0000	0.03424
546.0000	0.03404
545.0000	0.03386
544.0000	0.03373
543.0000	0.03362
542.0000	0.0335
541.0000	0.03341
540.0000	0.03335
539.0000	0.03335
538.0000	0.03331
537.0000	0.03323
536.0000	0.0332
535.0000	0.03302
534.0000	0.03295
533.0000	0.03285
532.0000	0.03286
531.0000	0.03287
530.0000	0.03289
529.0000	0.03294
528.0000	0.03298
527.0000	0.033
526.0000	0.03294
525.0000	0.03289
524.0000	0.03283
523.0000	0.03276
522.0000	0.03275
521.0000	0.03274
520.0000	0.033
519.0000	0.03315
518.0000	0.03326
517.0000	0.03331
516.0000	0.03331
515.0000	0.03333
514.0000	0.03333
513.0000	0.03327
512.0000	0.03335
511.0000	0.03345
510.0000	0.03357
509.0000	0.03366
508.0000	0.03365
507.0000	0.03372
506.0000	0.03378
505.0000	0.03388
504.0000	0.0339
503.0000	0.03388
502.0000	0.03382
501.0000	0.03391
500.0000	0.03399
499.0000	0.03412
498.0000	0.03425
497.0000	0.03436
496.0000	0.03443
495.0000	0.03442
494.0000	0.03443
493.0000	0.03441
492.0000	0.03445
491.0000	0.03452
490.0000	0.03465
489.0000	0.03469
488.0000	0.03475
487.0000	0.03474
486.0000	0.03486
485.0000	0.03483
484.0000	0.03486
483.0000	0.03483
482.0000	0.03486
481.0000	0.03493
480.0000	0.03501
479.0000	0.03507
478.0000	0.0351
477.0000	0.03505
476.0000	0.03506
475.0000	0.03502
474.0000	0.0351
473.0000	0.03514
472.0000	0.0352
471.0000	0.03523
470.0000	0.03524
469.0000	0.03523
468.0000	0.03522
467.0000	0.03522
466.0000	0.03525
465.0000	0.03531
464.0000	0.03533
463.0000	0.0354
462.0000	0.03544
461.0000	0.03548
460.0000	0.03547
459.0000	0.03554
458.0000	0.03558
457.0000	0.03563
456.0000	0.03568
455.0000	0.03576
454.0000	0.03575
453.0000	0.0358
452.0000	0.03584
451.0000	0.03593
450.0000	0.03595
449.0000	0.03601
448.0000	0.03609
447.0000	0.03624
446.0000	0.03626
445.0000	0.03635
444.0000	0.03632
443.0000	0.03639
442.0000	0.03642
441.0000	0.03657
440.0000	0.03666
439.0000	0.0368
438.0000	0.03677
437.0000	0.03686
436.0000	0.03686
435.0000	0.037
434.0000	0.03712
433.0000	0.03728
432.0000	0.03738
431.0000	0.03744
430.0000	0.03753
429.0000	0.03758
428.0000	0.03769
427.0000	0.03783
426.0000	0.03798
425.0000	0.0381
424.0000	0.03815
423.0000	0.03819
422.0000	0.03835
421.0000	0.03847
420.0000	0.0389
419.0000	0.03904
418.0000	0.03921
417.0000	0.03928
416.0000	0.03951
415.0000	0.03969
414.0000	0.03988
413.0000	0.04008
412.0000	0.04025
411.0000	0.04042
410.0000	0.04059
409.0000	0.04072
408.0000	0.04098
407.0000	0.0412
406.0000	0.04145
405.0000	0.04158
404.0000	0.04186
403.0000	0.04221
402.0000	0.04251
401.0000	0.04286
400.0000	0.04325
399.0000	0.04366
398.0000	0.04396
397.0000	0.04409
396.0000	0.04425
395.0000	0.04451
394.0000	0.04482
393.0000	0.04516
392.0000	0.04544
391.0000	0.04577
390.0000	0.04611
389.0000	0.04641
388.0000	0.04677
387.0000	0.04711
386.0000	0.04745
385.0000	0.04781
384.0000	0.04819
383.0000	0.04857
382.0000	0.04892
381.0000	0.04926
380.0000	0.04966
379.0000	0.05003
378.0000	0.05043
377.0000	0.05091
376.0000	0.05132
375.0000	0.05178
374.0000	0.05214
373.0000	0.05257
372.0000	0.053
371.0000	0.05347
370.0000	0.05436
369.0000	0.05483
368.0000	0.05544
367.0000	0.05603
366.0000	0.05653
365.0000	0.05711
364.0000	0.05763
363.0000	0.05833
362.0000	0.05899
361.0000	0.05958
360.0000	0.06028
359.0000	0.06089
358.0000	0.06172
357.0000	0.06247
356.0000	0.06315
355.0000	0.06395
354.0000	0.06476
353.0000	0.06567
352.0000	0.06641
351.0000	0.06732
350.0000	0.06823
349.0000	0.06936
348.0000	0.07036
347.0000	0.07158
346.0000	0.07282
345.0000	0.07403
344.0000	0.07519
343.0000	0.07643
342.0000	0.07763
341.0000	0.07906
340.0000	0.08114
339.0000	0.08243
338.0000	0.08372
337.0000	0.08496
336.0000	0.08635
335.0000	0.0879
334.0000	0.08923
333.0000	0.09072
332.0000	0.09213
331.0000	0.09343
330.0000	0.09473
329.0000	0.09593
328.0000	0.09718
327.0000	0.09862
326.0000	0.09959
325.0000	0.10076
324.0000	0.10182
323.0000	0.10299
322.0000	0.10382
321.0000	0.10486
320.0000	0.10586
319.0000	0.10689
318.0000	0.10797
317.0000	0.10881
316.0000	0.10983
315.0000	0.11083
314.0000	0.11164
313.0000	0.11268
312.0000	0.11361
311.0000	0.11486
310.0000	0.11617
309.0000	0.11749
308.0000	0.11895
307.0000	0.12065
306.0000	0.12247
305.0000	0.12457
304.0000	0.12681
303.0000	0.12913
302.0000	0.13168
301.0000	0.13433
300.0000	0.13707
299.0000	0.13977
298.0000	0.14261
297.0000	0.14534
296.0000	0.14813
295.0000	0.15074
294.0000	0.15302
293.0000	0.15493
292.0000	0.15634
291.0000	0.15735
290.0000	0.1579
289.0000	0.15808
288.0000	0.15798
287.0000	0.1577
286.0000	0.15713
285.0000	0.15648
284.0000	0.15587
283.0000	0.15532
282.0000	0.15477
281.0000	0.15426
280.0000	0.15386
279.0000	0.15357
278.0000	0.15317
277.0000	0.15275
276.0000	0.15252
275.0000	0.15239
274.0000	0.15244
273.0000	0.15241
272.0000	0.15246
271.0000	0.15259
270.0000	0.15275
269.0000	0.15303
268.0000	0.15322
267.0000	0.15337
266.0000	0.15341
265.0000	0.15348
264.0000	0.15379
263.0000	0.15399
262.0000	0.15436
261.0000	0.15464
260.0000	0.15502
259.0000	0.15543
258.0000	0.15591
257.0000	0.15672
256.0000	0.1576
255.0000	0.15828
254.0000	0.15917
253.0000	0.16007
252.0000	0.16129
251.0000	0.16243
250.0000	0.16374
249.0000	0.16502
248.0000	0.1663
247.0000	0.16745
246.0000	0.16852
245.0000	0.1695
244.0000	0.17025
243.0000	0.17092
242.0000	0.1716
241.0000	0.17231
240.0000	0.17318
239.0000	0.17412
238.0000	0.17542
237.0000	0.17697
236.0000	0.17906
235.0000	0.18196
234.0000	0.18537
233.0000	0.18937
232.0000	0.1937
231.0000	0.19827
230.0000	0.20335
229.0000	0.20875
228.0000	0.21505
227.0000	0.22195
226.0000	0.22968
225.0000	0.23769
224.0000	0.2462
223.0000	0.25488
222.0000	0.26419
221.0000	0.27389
220.0000	0.28398
219.0000	0.29459
218.0000	0.30569
217.0000	0.31695
216.0000	0.32803
215.0000	0.33875
214.0000	0.34954
213.0000	0.36025
212.0000	0.37085
211.0000	0.38076
210.0000	0.38977
209.0000	0.39843
208.0000	0.40643
207.0000	0.4136
206.0000	0.42051
205.0000	0.4272
204.0000	0.43437
203.0000	0.4415
202.0000	0.44805
201.0000	0.4531
200.0000	0.45603
199.0000	0.45682
198.0000	0.45585
197.0000	0.45327
196.0000	0.44883
195.0000	0.44277
194.0000	0.43517
193.0000	0.42603
192.0000	0.41158
191.0000	0.38858
190.0000	0.35613
