TITLE	
DATA TYPE	
ORIGIN	JASCO
OWNER	
DATE	19/08/31
TIME	15:31:44
SPECTROMETER/DATA SYSTEM	JASCO Corp., V-570, Rev. 1.00
RESOLUTION	
DELTAX	-1
XUNITS	NANOMETERS
YUNITS	ABSORBANCE
FIRSTX	840.0000
LASTX	190.0000
NPOINTS	651
FIRSTY	0.01515
MAXY	0.67505
MINY	0.01509
XYDATA
840.0000	0.01515
839.0000	0.01516
838.0000	0.01509
837.0000	0.01513
836.0000	0.01516
835.0000	0.01537
834.0000	0.01543
833.0000	0.01569
832.0000	0.01586
831.0000	0.01604
830.0000	0.01612
829.0000	0.01623
828.0000	0.01626
827.0000	0.0163
826.0000	0.01638
825.0000	0.01656
824.0000	0.01671
823.0000	0.01689
822.0000	0.01692
821.0000	0.01708
820.0000	0.01718
819.0000	0.01733
818.0000	0.01754
817.0000	0.01758
816.0000	0.0178
815.0000	0.01794
814.0000	0.01808
813.0000	0.0181
812.0000	0.01828
811.0000	0.01846
810.0000	0.01866
809.0000	0.01883
808.0000	0.01903
807.0000	0.01917
806.0000	0.01942
805.0000	0.01959
804.0000	0.01968
803.0000	0.0198
802.0000	0.01988
801.0000	0.02005
800.0000	0.02015
799.0000	0.02016
798.0000	0.02024
797.0000	0.02031
796.0000	0.0203
795.0000	0.02036
794.0000	0.02049
793.0000	0.02066
792.0000	0.02069
791.0000	0.02074
790.0000	0.02071
789.0000	0.02069
788.0000	0.02073
787.0000	0.02073
786.0000	0.02076
785.0000	0.02089
784.0000	0.02097
783.0000	0.02095
782.0000	0.02094
781.0000	0.02094
780.0000	0.02097
779.0000	0.02101
778.0000	0.02108
777.0000	0.02107
776.0000	0.02108
775.0000	0.02099
774.0000	0.02093
773.0000	0.02091
772.0000	0.02091
771.0000	0.02089
770.0000	0.02087
769.0000	0.02083
768.0000	0.02075
767.0000	0.0208
766.0000	0.02073
765.0000	0.0208
764.0000	0.02073
763.0000	0.02078
762.0000	0.02083
761.0000	0.02089
760.0000	0.02099
759.0000	0.02101
758.0000	0.02109
757.0000	0.02112
756.0000	0.02114
755.0000	0.02113
754.0000	0.02113
753.0000	0.02125
752.0000	0.0213
751.0000	0.02142
750.0000	0.02146
749.0000	0.0215
748.0000	0.02149
747.0000	0.02159
746.0000	0.0216
745.0000	0.02166
744.0000	0.02175
743.0000	0.02191
742.0000	0.02213
741.0000	0.02216
740.0000	0.02232
739.0000	0.02244
738.0000	0.02262
737.0000	0.02275
736.0000	0.0229
735.0000	0.02306
734.0000	0.02329
733.0000	0.02355
732.0000	0.02378
731.0000	0.02403
730.0000	0.02429
729.0000	0.02452
728.0000	0.0248
727.0000	0.02506
726.0000	0.02541
725.0000	0.02577
724.0000	0.02619
723.0000	0.02662
722.0000	0.02722
721.0000	0.02784
720.0000	0.02847
719.0000	0.02916
718.0000	0.02998
717.0000	0.03093
716.0000	0.03184
715.0000	0.03295
714.0000	0.03415
713.0000	0.03551
712.0000	0.03698
711.0000	0.03854
710.0000	0.04039
709.0000	0.0424
708.0000	0.04468
707.0000	0.04717
706.0000	0.04998
705.0000	0.0531
704.0000	0.05661
703.0000	0.06059
702.0000	0.06503
701.0000	0.06987
700.0000	0.07534
699.0000	0.08138
698.0000	0.08813
697.0000	0.09563
696.0000	0.10394
695.0000	0.11312
694.0000	0.12324
693.0000	0.13439
692.0000	0.14663
691.0000	0.16005
690.0000	0.17473
689.0000	0.19075
688.0000	0.20813
687.0000	0.22703
686.0000	0.24735
685.0000	0.26911
684.0000	0.2922
683.0000	0.31645
682.0000	0.34171
681.0000	0.368
680.0000	0.39514
679.0000	0.42263
678.0000	0.45002
677.0000	0.47688
676.0000	0.503
675.0000	0.52804
674.0000	0.55174
673.0000	0.57379
672.0000	0.59387
671.0000	0.61185
670.0000	0.62759
669.0000	0.64096
668.0000	0.65202
667.0000	0.66071
666.0000	0.66728
665.0000	0.67172
664.0000	0.67427
663.0000	0.67505
662.0000	0.67442
661.0000	0.67243
660.0000	0.66927
659.0000	0.66512
658.0000	0.66002
657.0000	0.65409
656.0000	0.64743
655.0000	0.64009
654.0000	0.63214
653.0000	0.62359
652.0000	0.61454
651.0000	0.60503
650.0000	0.59511
649.0000	0.58491
648.0000	0.57435
647.0000	0.56364
646.0000	0.55282
645.0000	0.54195
644.0000	0.53114
643.0000	0.52041
642.0000	0.50994
641.0000	0.49974
640.0000	0.48982
639.0000	0.48029
638.0000	0.47121
637.0000	0.46259
636.0000	0.4543
635.0000	0.44647
634.0000	0.43923
633.0000	0.43255
632.0000	0.42642
631.0000	0.42067
630.0000	0.41542
629.0000	0.41063
628.0000	0.40637
627.0000	0.4025
626.0000	0.39908
625.0000	0.396
624.0000	0.39329
623.0000	0.39093
622.0000	0.38873
621.0000	0.38675
620.0000	0.3849
619.0000	0.38316
618.0000	0.38147
617.0000	0.37965
616.0000	0.37773
615.0000	0.37555
614.0000	0.37315
613.0000	0.37043
612.0000	0.36736
611.0000	0.36386
610.0000	0.36001
609.0000	0.35565
608.0000	0.35096
607.0000	0.34578
606.0000	0.34024
605.0000	0.33429
604.0000	0.328
603.0000	0.32143
602.0000	0.31464
601.0000	0.30764
600.0000	0.3005
599.0000	0.29324
598.0000	0.28594
597.0000	0.27858
596.0000	0.27123
595.0000	0.26393
594.0000	0.25668
593.0000	0.24958
592.0000	0.24253
591.0000	0.23566
590.0000	0.22896
589.0000	0.22244
588.0000	0.21614
587.0000	0.20997
586.0000	0.20402
585.0000	0.19825
584.0000	0.19264
583.0000	0.18722
582.0000	0.182
581.0000	0.17703
580.0000	0.17228
579.0000	0.16776
578.0000	0.16337
577.0000	0.15927
576.0000	0.15525
575.0000	0.15153
574.0000	0.14786
573.0000	0.14436
572.0000	0.14105
571.0000	0.13786
570.0000	0.13475
569.0000	0.13168
568.0000	0.12879
567.0000	0.12601
566.0000	0.12333
565.0000	0.12074
564.0000	0.11824
563.0000	0.11587
562.0000	0.11347
561.0000	0.11117
560.0000	0.10883
559.0000	0.10652
558.0000	0.10426
557.0000	0.10203
556.0000	0.09987
555.0000	0.09782
554.0000	0.09573
553.0000	0.09379
552.0000	0.0919
551.0000	0.09008
550.0000	0.08831
549.0000	0.08659
548.0000	0.08491
547.0000	0.08322
546.0000	0.08161
545.0000	0.08006
544.0000	0.07866
543.0000	0.07729
542.0000	0.07598
541.0000	0.07478
540.0000	0.07366
539.0000	0.0727
538.0000	0.07168
537.0000	0.07072
536.0000	0.06981
535.0000	0.06891
534.0000	0.06806
533.0000	0.06726
532.0000	0.06655
531.0000	0.06595
530.0000	0.06534
529.0000	0.0649
528.0000	0.06443
527.0000	0.06401
526.0000	0.06355
525.0000	0.0632
524.0000	0.06283
523.0000	0.06242
522.0000	0.06208
521.0000	0.0618
520.0000	0.06171
519.0000	0.06163
518.0000	0.06154
517.0000	0.06146
516.0000	0.06133
515.0000	0.06125
514.0000	0.06116
513.0000	0.06105
512.0000	0.06105
511.0000	0.06107
510.0000	0.06114
509.0000	0.06123
508.0000	0.06124
507.0000	0.06133
506.0000	0.06133
505.0000	0.06137
504.0000	0.06137
503.0000	0.06133
502.0000	0.06124
501.0000	0.0612
500.0000	0.06115
499.0000	0.06115
498.0000	0.06113
497.0000	0.06103
496.0000	0.06091
495.0000	0.06074
494.0000	0.06054
493.0000	0.06032
492.0000	0.06005
491.0000	0.05984
490.0000	0.05967
489.0000	0.0594
488.0000	0.05918
487.0000	0.05883
486.0000	0.05857
485.0000	0.05819
484.0000	0.05783
483.0000	0.05747
482.0000	0.05713
481.0000	0.0568
480.0000	0.05653
479.0000	0.0562
478.0000	0.05586
477.0000	0.05546
476.0000	0.05513
475.0000	0.05473
474.0000	0.05444
473.0000	0.05416
472.0000	0.05385
471.0000	0.05354
470.0000	0.05324
469.0000	0.0529
468.0000	0.05257
467.0000	0.05219
466.0000	0.05187
465.0000	0.05156
464.0000	0.0513
463.0000	0.05109
462.0000	0.05079
461.0000	0.05047
460.0000	0.05012
459.0000	0.04979
458.0000	0.04947
457.0000	0.04917
456.0000	0.04895
455.0000	0.04877
454.0000	0.04846
453.0000	0.04816
452.0000	0.0478
451.0000	0.04763
450.0000	0.04733
449.0000	0.0471
448.0000	0.04694
447.0000	0.04677
446.0000	0.04658
445.0000	0.04638
444.0000	0.0461
443.0000	0.04596
442.0000	0.04576
441.0000	0.04573
440.0000	0.04553
439.0000	0.04545
438.0000	0.04526
437.0000	0.04512
436.0000	0.04495
435.0000	0.04487
434.0000	0.04487
433.0000	0.04482
432.0000	0.04476
431.0000	0.0447
430.0000	0.04457
429.0000	0.04446
428.0000	0.04438
427.0000	0.0444
426.0000	0.0445
425.0000	0.04459
424.0000	0.04456
423.0000	0.04458
422.0000	0.0446
421.0000	0.04465
420.0000	0.0449
419.0000	0.04505
418.0000	0.04513
417.0000	0.04527
416.0000	0.04548
415.0000	0.04581
414.0000	0.0461
413.0000	0.04646
412.0000	0.04676
411.0000	0.04711
410.0000	0.04764
409.0000	0.04809
408.0000	0.04867
407.0000	0.0492
406.0000	0.04978
405.0000	0.05026
404.0000	0.05097
403.0000	0.05162
402.0000	0.05228
401.0000	0.0529
400.0000	0.05357
399.0000	0.05431
398.0000	0.05483
397.0000	0.05524
396.0000	0.05554
395.0000	0.05585
394.0000	0.05626
393.0000	0.05666
392.0000	0.05688
391.0000	0.05712
390.0000	0.05726
389.0000	0.05751
388.0000	0.05772
387.0000	0.0579
386.0000	0.05803
385.0000	0.05825
384.0000	0.05853
383.0000	0.05877
382.0000	0.05892
381.0000	0.05919
380.0000	0.0595
379.0000	0.05992
378.0000	0.06033
377.0000	0.06063
376.0000	0.06096
375.0000	0.06131
374.0000	0.06164
373.0000	0.06199
372.0000	0.06231
371.0000	0.06272
370.0000	0.06364
369.0000	0.06425
368.0000	0.06483
367.0000	0.0654
366.0000	0.06589
365.0000	0.06638
364.0000	0.06709
363.0000	0.06782
362.0000	0.0686
361.0000	0.06936
360.0000	0.07034
359.0000	0.07111
358.0000	0.07218
357.0000	0.07317
356.0000	0.07431
355.0000	0.07544
354.0000	0.07665
353.0000	0.07793
352.0000	0.0791
351.0000	0.08043
350.0000	0.08179
349.0000	0.08346
348.0000	0.08505
347.0000	0.08681
346.0000	0.08868
345.0000	0.09074
344.0000	0.09296
343.0000	0.09536
342.0000	0.09799
341.0000	0.10108
340.0000	0.10585
339.0000	0.10895
338.0000	0.11224
337.0000	0.11602
336.0000	0.1204
335.0000	0.12484
334.0000	0.12931
333.0000	0.13333
332.0000	0.13729
331.0000	0.14085
330.0000	0.14428
329.0000	0.14721
328.0000	0.14976
327.0000	0.15204
326.0000	0.15367
325.0000	0.15541
324.0000	0.15696
323.0000	0.15844
322.0000	0.15983
321.0000	0.1614
320.0000	0.16311
319.0000	0.16504
318.0000	0.16684
317.0000	0.16894
316.0000	0.17135
315.0000	0.174
314.0000	0.17721
313.0000	0.18108
312.0000	0.18598
311.0000	0.19187
310.0000	0.19859
309.0000	0.20714
308.0000	0.21737
307.0000	0.22958
306.0000	0.24326
305.0000	0.25842
304.0000	0.27491
303.0000	0.29282
302.0000	0.31173
301.0000	0.33144
300.0000	0.35133
299.0000	0.37118
298.0000	0.39045
297.0000	0.40825
296.0000	0.42409
295.0000	0.43743
294.0000	0.44758
293.0000	0.45387
292.0000	0.45562
291.0000	0.45308
290.0000	0.44686
289.0000	0.43764
288.0000	0.42648
287.0000	0.41389
286.0000	0.40077
285.0000	0.38784
284.0000	0.37511
283.0000	0.3627
282.0000	0.35049
281.0000	0.33851
280.0000	0.32691
279.0000	0.31591
278.0000	0.30542
277.0000	0.29539
276.0000	0.28602
275.0000	0.27748
274.0000	0.26991
273.0000	0.26312
272.0000	0.25709
271.0000	0.25135
270.0000	0.24563
269.0000	0.24021
268.0000	0.23481
267.0000	0.22959
266.0000	0.22459
265.0000	0.22022
264.0000	0.21688
263.0000	0.21424
262.0000	0.21244
261.0000	0.21155
260.0000	0.21133
259.0000	0.2121
258.0000	0.21363
257.0000	0.21606
256.0000	0.21944
255.0000	0.22363
254.0000	0.22908
253.0000	0.23559
252.0000	0.24298
251.0000	0.25079
250.0000	0.25891
249.0000	0.26636
248.0000	0.27231
247.0000	0.2759
246.0000	0.27702
245.0000	0.27597
244.0000	0.27287
243.0000	0.26842
242.0000	0.26319
241.0000	0.25755
240.0000	0.25182
239.0000	0.24615
238.0000	0.241
237.0000	0.23653
236.0000	0.23308
235.0000	0.23087
234.0000	0.22974
233.0000	0.22983
232.0000	0.23088
231.0000	0.23282
230.0000	0.23565
229.0000	0.23913
228.0000	0.24347
227.0000	0.24822
226.0000	0.25351
225.0000	0.25923
224.0000	0.26573
223.0000	0.27284
222.0000	0.28071
221.0000	0.28936
220.0000	0.29859
219.0000	0.30867
218.0000	0.31916
217.0000	0.32978
216.0000	0.34064
215.0000	0.3516
214.0000	0.36271
213.0000	0.37378
212.0000	0.38481
211.0000	0.39568
210.0000	0.40646
209.0000	0.4166
208.0000	0.42665
207.0000	0.43613
206.0000	0.44625
205.0000	0.45629
204.0000	0.46691
203.0000	0.47781
202.0000	0.4885
201.0000	0.49831
200.0000	0.5056
199.0000	0.51089
198.0000	0.51341
197.0000	0.51583
196.0000	0.51622
195.0000	0.5146
194.0000	0.51156
193.0000	0.50425
192.0000	0.49133
191.0000	0.46788
190.0000	0.43238
