TITLE	
DATA TYPE	
ORIGIN	JASCO
OWNER	
DATE	19/08/31
TIME	14:53:59
SPECTROMETER/DATA SYSTEM	JASCO Corp., V-570, Rev. 1.00
RESOLUTION	
DELTAX	-1
XUNITS	NANOMETERS
YUNITS	ABSORBANCE
FIRSTX	840.0000
LASTX	190.0000
NPOINTS	651
FIRSTY	0.04234
MAXY	0.86713
MINY	0.04234
XYDATA
840.0000	0.04234
839.0000	0.04243
838.0000	0.04239
837.0000	0.04241
836.0000	0.04239
835.0000	0.04246
834.0000	0.04237
833.0000	0.04244
832.0000	0.04257
831.0000	0.04278
830.0000	0.04287
829.0000	0.04293
828.0000	0.04304
827.0000	0.04313
826.0000	0.04319
825.0000	0.04323
824.0000	0.0433
823.0000	0.04339
822.0000	0.04341
821.0000	0.04353
820.0000	0.04357
819.0000	0.04354
818.0000	0.04369
817.0000	0.04378
816.0000	0.04401
815.0000	0.04414
814.0000	0.04424
813.0000	0.04423
812.0000	0.04432
811.0000	0.04444
810.0000	0.04447
809.0000	0.04461
808.0000	0.04474
807.0000	0.0449
806.0000	0.04511
805.0000	0.04517
804.0000	0.04522
803.0000	0.04531
802.0000	0.04537
801.0000	0.0455
800.0000	0.04559
799.0000	0.04565
798.0000	0.04579
797.0000	0.04589
796.0000	0.04588
795.0000	0.04577
794.0000	0.04584
793.0000	0.04592
792.0000	0.04601
791.0000	0.04609
790.0000	0.04608
789.0000	0.04618
788.0000	0.04623
787.0000	0.04637
786.0000	0.04636
785.0000	0.04652
784.0000	0.04659
783.0000	0.0466
782.0000	0.04672
781.0000	0.04678
780.0000	0.0469
779.0000	0.0469
778.0000	0.04688
777.0000	0.04689
776.0000	0.04687
775.0000	0.04692
774.0000	0.04687
773.0000	0.04686
772.0000	0.04696
771.0000	0.04692
770.0000	0.04695
769.0000	0.04687
768.0000	0.04685
767.0000	0.04694
766.0000	0.04691
765.0000	0.047
764.0000	0.04692
763.0000	0.04709
762.0000	0.04723
761.0000	0.04732
760.0000	0.04735
759.0000	0.04724
758.0000	0.04724
757.0000	0.04726
756.0000	0.04737
755.0000	0.04739
754.0000	0.0474
753.0000	0.04749
752.0000	0.04757
751.0000	0.04772
750.0000	0.04775
749.0000	0.04785
748.0000	0.04786
747.0000	0.04808
746.0000	0.04811
745.0000	0.04812
744.0000	0.04823
743.0000	0.04835
742.0000	0.04863
741.0000	0.04878
740.0000	0.04888
739.0000	0.04891
738.0000	0.04916
737.0000	0.04937
736.0000	0.04964
735.0000	0.04985
734.0000	0.05004
733.0000	0.05032
732.0000	0.05059
731.0000	0.05092
730.0000	0.05121
729.0000	0.05151
728.0000	0.05192
727.0000	0.05232
726.0000	0.05277
725.0000	0.05316
724.0000	0.05375
723.0000	0.05435
722.0000	0.05505
721.0000	0.05579
720.0000	0.05655
719.0000	0.05744
718.0000	0.05838
717.0000	0.05941
716.0000	0.06054
715.0000	0.06196
714.0000	0.06344
713.0000	0.06505
712.0000	0.0668
711.0000	0.06872
710.0000	0.07094
709.0000	0.07337
708.0000	0.07617
707.0000	0.07923
706.0000	0.08269
705.0000	0.0865
704.0000	0.09087
703.0000	0.09578
702.0000	0.10123
701.0000	0.10731
700.0000	0.1141
699.0000	0.12171
698.0000	0.13008
697.0000	0.13943
696.0000	0.14982
695.0000	0.16132
694.0000	0.17408
693.0000	0.18807
692.0000	0.20355
691.0000	0.22047
690.0000	0.239
689.0000	0.25922
688.0000	0.2812
687.0000	0.30511
686.0000	0.33077
685.0000	0.35833
684.0000	0.38759
683.0000	0.41837
682.0000	0.45056
681.0000	0.48388
680.0000	0.51834
679.0000	0.55329
678.0000	0.58817
677.0000	0.62248
676.0000	0.65582
675.0000	0.68779
674.0000	0.71793
673.0000	0.74589
672.0000	0.77122
671.0000	0.79375
670.0000	0.81329
669.0000	0.82975
668.0000	0.8431
667.0000	0.85326
666.0000	0.86047
665.0000	0.865
664.0000	0.86713
663.0000	0.867
662.0000	0.86499
661.0000	0.86122
660.0000	0.856
659.0000	0.84951
658.0000	0.84193
657.0000	0.83334
656.0000	0.82402
655.0000	0.81397
654.0000	0.80325
653.0000	0.79179
652.0000	0.77972
651.0000	0.7671
650.0000	0.75407
649.0000	0.74076
648.0000	0.72717
647.0000	0.71333
646.0000	0.69942
645.0000	0.68548
644.0000	0.67169
643.0000	0.65799
642.0000	0.64469
641.0000	0.63172
640.0000	0.61935
639.0000	0.60746
638.0000	0.59619
637.0000	0.58551
636.0000	0.5755
635.0000	0.56609
634.0000	0.55736
633.0000	0.54927
632.0000	0.54194
631.0000	0.53528
630.0000	0.52922
629.0000	0.52383
628.0000	0.51903
627.0000	0.51484
626.0000	0.51113
625.0000	0.50792
624.0000	0.5052
623.0000	0.50294
622.0000	0.50095
621.0000	0.49922
620.0000	0.49763
619.0000	0.49612
618.0000	0.49461
617.0000	0.49303
616.0000	0.49119
615.0000	0.48908
614.0000	0.48659
613.0000	0.48361
612.0000	0.48012
611.0000	0.47604
610.0000	0.47145
609.0000	0.4662
608.0000	0.46039
607.0000	0.45393
606.0000	0.44696
605.0000	0.43938
604.0000	0.43129
603.0000	0.42281
602.0000	0.41399
601.0000	0.40493
600.0000	0.39565
599.0000	0.38625
598.0000	0.37674
597.0000	0.36713
596.0000	0.35762
595.0000	0.34813
594.0000	0.33879
593.0000	0.32957
592.0000	0.32052
591.0000	0.31167
590.0000	0.3031
589.0000	0.29471
588.0000	0.28662
587.0000	0.27873
586.0000	0.27117
585.0000	0.26381
584.0000	0.25672
583.0000	0.24986
582.0000	0.24339
581.0000	0.23709
580.0000	0.23106
579.0000	0.22527
578.0000	0.21975
577.0000	0.2146
576.0000	0.20963
575.0000	0.20489
574.0000	0.2004
573.0000	0.19603
572.0000	0.19193
571.0000	0.18789
570.0000	0.18399
569.0000	0.18019
568.0000	0.17658
567.0000	0.17308
566.0000	0.16967
565.0000	0.16641
564.0000	0.16326
563.0000	0.16025
562.0000	0.15726
561.0000	0.15435
560.0000	0.15148
559.0000	0.14867
558.0000	0.1458
557.0000	0.14301
556.0000	0.14021
555.0000	0.13758
554.0000	0.13499
553.0000	0.13248
552.0000	0.13
551.0000	0.12762
550.0000	0.12533
549.0000	0.1231
548.0000	0.12087
547.0000	0.11875
546.0000	0.11669
545.0000	0.11479
544.0000	0.11296
543.0000	0.11123
542.0000	0.10951
541.0000	0.10792
540.0000	0.10649
539.0000	0.10521
538.0000	0.10386
537.0000	0.10259
536.0000	0.10141
535.0000	0.10018
534.0000	0.09913
533.0000	0.09812
532.0000	0.09732
531.0000	0.09654
530.0000	0.09574
529.0000	0.09507
528.0000	0.09447
527.0000	0.09388
526.0000	0.09334
525.0000	0.09275
524.0000	0.09226
523.0000	0.09178
522.0000	0.09142
521.0000	0.09108
520.0000	0.09073
519.0000	0.0906
518.0000	0.09048
517.0000	0.0904
516.0000	0.09025
515.0000	0.09008
514.0000	0.08998
513.0000	0.0898
512.0000	0.08979
511.0000	0.08977
510.0000	0.08982
509.0000	0.08993
508.0000	0.08993
507.0000	0.08995
506.0000	0.08994
505.0000	0.08997
504.0000	0.09
503.0000	0.08993
502.0000	0.08979
501.0000	0.08977
500.0000	0.08966
499.0000	0.08958
498.0000	0.08948
497.0000	0.08932
496.0000	0.0892
495.0000	0.08894
494.0000	0.08868
493.0000	0.0883
492.0000	0.08795
491.0000	0.08768
490.0000	0.08745
489.0000	0.08713
488.0000	0.08678
487.0000	0.08634
486.0000	0.08594
485.0000	0.08544
484.0000	0.08496
483.0000	0.08446
482.0000	0.08405
481.0000	0.08359
480.0000	0.08324
479.0000	0.08277
478.0000	0.08233
477.0000	0.08183
476.0000	0.08137
475.0000	0.08086
474.0000	0.08039
473.0000	0.08001
472.0000	0.07959
471.0000	0.07923
470.0000	0.07878
469.0000	0.07834
468.0000	0.07791
467.0000	0.07749
466.0000	0.07703
465.0000	0.07658
464.0000	0.07622
463.0000	0.07592
462.0000	0.07555
461.0000	0.07514
460.0000	0.07465
459.0000	0.07418
458.0000	0.07378
457.0000	0.07335
456.0000	0.07293
455.0000	0.07253
454.0000	0.07214
453.0000	0.07175
452.0000	0.07136
451.0000	0.07103
450.0000	0.07063
449.0000	0.07032
448.0000	0.06994
447.0000	0.06969
446.0000	0.06936
445.0000	0.06904
444.0000	0.06868
443.0000	0.06838
442.0000	0.06811
441.0000	0.06791
440.0000	0.06771
439.0000	0.06747
438.0000	0.06718
437.0000	0.06692
436.0000	0.06663
435.0000	0.06646
434.0000	0.06635
433.0000	0.06631
432.0000	0.06623
431.0000	0.06615
430.0000	0.06602
429.0000	0.06591
428.0000	0.06587
427.0000	0.0658
426.0000	0.06582
425.0000	0.0658
424.0000	0.06569
423.0000	0.06553
422.0000	0.06548
421.0000	0.0654
420.0000	0.06543
419.0000	0.06551
418.0000	0.06558
417.0000	0.0657
416.0000	0.06584
415.0000	0.06609
414.0000	0.06631
413.0000	0.06661
412.0000	0.06695
411.0000	0.06737
410.0000	0.06796
409.0000	0.06843
408.0000	0.06904
407.0000	0.0696
406.0000	0.07021
405.0000	0.07084
404.0000	0.07155
403.0000	0.07234
402.0000	0.07305
401.0000	0.07376
400.0000	0.07446
399.0000	0.07515
398.0000	0.07572
397.0000	0.07603
396.0000	0.07629
395.0000	0.07655
394.0000	0.07687
393.0000	0.07713
392.0000	0.07728
391.0000	0.07739
390.0000	0.07748
389.0000	0.07761
388.0000	0.07778
387.0000	0.0778
386.0000	0.07779
385.0000	0.07785
384.0000	0.07798
383.0000	0.07813
382.0000	0.07811
381.0000	0.07826
380.0000	0.07837
379.0000	0.07858
378.0000	0.07883
377.0000	0.07908
376.0000	0.07933
375.0000	0.07959
374.0000	0.07982
373.0000	0.08004
372.0000	0.08019
371.0000	0.0804
370.0000	0.08073
369.0000	0.08112
368.0000	0.08143
367.0000	0.08194
366.0000	0.08231
365.0000	0.08282
364.0000	0.08338
363.0000	0.08412
362.0000	0.08468
361.0000	0.08539
360.0000	0.08623
359.0000	0.08711
358.0000	0.08813
357.0000	0.0891
356.0000	0.09016
355.0000	0.09128
354.0000	0.09243
353.0000	0.0936
352.0000	0.09471
351.0000	0.09595
350.0000	0.09734
349.0000	0.09897
348.0000	0.10061
347.0000	0.10234
346.0000	0.10418
345.0000	0.1062
344.0000	0.1086
343.0000	0.11127
342.0000	0.11421
341.0000	0.11754
340.0000	0.12453
339.0000	0.12902
338.0000	0.13352
337.0000	0.1379
336.0000	0.14258
335.0000	0.14763
334.0000	0.15271
333.0000	0.15759
332.0000	0.16214
331.0000	0.16642
330.0000	0.17027
329.0000	0.17348
328.0000	0.17618
327.0000	0.17871
326.0000	0.18054
325.0000	0.18229
324.0000	0.18381
323.0000	0.1852
322.0000	0.18648
321.0000	0.18812
320.0000	0.18994
319.0000	0.19206
318.0000	0.19421
317.0000	0.19661
316.0000	0.19938
315.0000	0.20253
314.0000	0.20634
313.0000	0.21117
312.0000	0.21697
311.0000	0.22381
310.0000	0.23218
309.0000	0.24269
308.0000	0.25537
307.0000	0.27021
306.0000	0.28713
305.0000	0.30583
304.0000	0.32618
303.0000	0.34829
302.0000	0.37171
301.0000	0.39618
300.0000	0.42105
299.0000	0.44561
298.0000	0.46938
297.0000	0.49116
296.0000	0.51073
295.0000	0.52703
294.0000	0.53922
293.0000	0.54632
292.0000	0.54829
291.0000	0.54498
290.0000	0.53683
289.0000	0.52491
288.0000	0.51023
287.0000	0.49416
286.0000	0.47754
285.0000	0.4608
284.0000	0.44451
283.0000	0.42883
282.0000	0.41334
281.0000	0.39808
280.0000	0.38331
279.0000	0.36907
278.0000	0.35548
277.0000	0.3425
276.0000	0.33059
275.0000	0.31978
274.0000	0.31023
273.0000	0.30151
272.0000	0.29343
271.0000	0.28583
270.0000	0.27852
269.0000	0.2713
268.0000	0.26421
267.0000	0.25733
266.0000	0.25095
265.0000	0.24527
264.0000	0.24066
263.0000	0.23706
262.0000	0.23469
261.0000	0.23329
260.0000	0.23293
259.0000	0.23358
258.0000	0.23523
257.0000	0.23809
256.0000	0.24207
255.0000	0.24718
254.0000	0.2538
253.0000	0.26178
252.0000	0.27098
251.0000	0.28082
250.0000	0.2908
249.0000	0.2999
248.0000	0.30691
247.0000	0.31117
246.0000	0.31231
245.0000	0.31044
244.0000	0.30596
243.0000	0.29987
242.0000	0.29264
241.0000	0.28496
240.0000	0.27693
239.0000	0.26914
238.0000	0.26171
237.0000	0.25506
236.0000	0.24927
235.0000	0.24472
234.0000	0.24136
233.0000	0.23935
232.0000	0.23836
231.0000	0.23831
230.0000	0.23917
229.0000	0.24069
228.0000	0.24302
227.0000	0.24573
226.0000	0.24893
225.0000	0.25253
224.0000	0.2569
223.0000	0.26188
222.0000	0.26767
221.0000	0.27402
220.0000	0.28109
219.0000	0.28881
218.0000	0.29684
217.0000	0.30496
216.0000	0.31327
215.0000	0.32191
214.0000	0.3307
213.0000	0.33953
212.0000	0.34841
211.0000	0.35734
210.0000	0.36609
209.0000	0.37462
208.0000	0.38296
207.0000	0.39103
206.0000	0.39977
205.0000	0.40875
204.0000	0.41853
203.0000	0.42839
202.0000	0.43782
201.0000	0.44604
200.0000	0.45221
199.0000	0.45638
198.0000	0.45926
197.0000	0.46224
196.0000	0.46368
195.0000	0.46469
194.0000	0.46292
193.0000	0.46042
192.0000	0.45376
191.0000	0.43962
190.0000	0.41562
