TITLE	
DATA TYPE	
ORIGIN	JASCO
OWNER	
DATE	19/08/29
TIME	14:59:42
SPECTROMETER/DATA SYSTEM	JASCO Corp., V-570, Rev. 1.00
RESOLUTION	
DELTAX	-1
XUNITS	NANOMETERS
YUNITS	ABSORBANCE
FIRSTX	840.0000
LASTX	190.0000
NPOINTS	651
FIRSTY	0.00492
MAXY	1.88340
MINY	0.00401
XYDATA
840.0000	0.00492
839.0000	0.00486
838.0000	0.0047
837.0000	0.00469
836.0000	0.00462
835.0000	0.00462
834.0000	0.00481
833.0000	0.00479
832.0000	0.00472
831.0000	0.00452
830.0000	0.00454
829.0000	0.00468
828.0000	0.0047
827.0000	0.00447
826.0000	0.00439
825.0000	0.00422
824.0000	0.00423
823.0000	0.00422
822.0000	0.00428
821.0000	0.0043
820.0000	0.00424
819.0000	0.00429
818.0000	0.00416
817.0000	0.0041
816.0000	0.00409
815.0000	0.00417
814.0000	0.0042
813.0000	0.00419
812.0000	0.00416
811.0000	0.00401
810.0000	0.00405
809.0000	0.00412
808.0000	0.00418
807.0000	0.00425
806.0000	0.00427
805.0000	0.00429
804.0000	0.00433
803.0000	0.0043
802.0000	0.00429
801.0000	0.00434
800.0000	0.00434
799.0000	0.00432
798.0000	0.00428
797.0000	0.00423
796.0000	0.00429
795.0000	0.00431
794.0000	0.00436
793.0000	0.00433
792.0000	0.00439
791.0000	0.00437
790.0000	0.00444
789.0000	0.00442
788.0000	0.00453
787.0000	0.00456
786.0000	0.00464
785.0000	0.00463
784.0000	0.00475
783.0000	0.00485
782.0000	0.00489
781.0000	0.00495
780.0000	0.00499
779.0000	0.00503
778.0000	0.00504
777.0000	0.00514
776.0000	0.00516
775.0000	0.00519
774.0000	0.00522
773.0000	0.00522
772.0000	0.00532
771.0000	0.00535
770.0000	0.00553
769.0000	0.00551
768.0000	0.00555
767.0000	0.00553
766.0000	0.00556
765.0000	0.00556
764.0000	0.00573
763.0000	0.00584
762.0000	0.00593
761.0000	0.00603
760.0000	0.00602
759.0000	0.00609
758.0000	0.0062
757.0000	0.00633
756.0000	0.00636
755.0000	0.00644
754.0000	0.0065
753.0000	0.00654
752.0000	0.00669
751.0000	0.00665
750.0000	0.00673
749.0000	0.00674
748.0000	0.00679
747.0000	0.00679
746.0000	0.00679
745.0000	0.00689
744.0000	0.00706
743.0000	0.0071
742.0000	0.00719
741.0000	0.00722
740.0000	0.00716
739.0000	0.00721
738.0000	0.00729
737.0000	0.00734
736.0000	0.00722
735.0000	0.00724
734.0000	0.00724
733.0000	0.00736
732.0000	0.00738
731.0000	0.00731
730.0000	0.00722
729.0000	0.0072
728.0000	0.00722
727.0000	0.00725
726.0000	0.0073
725.0000	0.00733
724.0000	0.00737
723.0000	0.00734
722.0000	0.00739
721.0000	0.00753
720.0000	0.00768
719.0000	0.00781
718.0000	0.00789
717.0000	0.00805
716.0000	0.00814
715.0000	0.00827
714.0000	0.00832
713.0000	0.0085
712.0000	0.00862
711.0000	0.00877
710.0000	0.00895
709.0000	0.00916
708.0000	0.00944
707.0000	0.00973
706.0000	0.01
705.0000	0.01036
704.0000	0.01073
703.0000	0.01117
702.0000	0.01163
701.0000	0.01215
700.0000	0.0127
699.0000	0.01331
698.0000	0.01397
697.0000	0.01474
696.0000	0.01554
695.0000	0.01637
694.0000	0.01722
693.0000	0.01818
692.0000	0.01924
691.0000	0.02037
690.0000	0.02169
689.0000	0.0231
688.0000	0.02461
687.0000	0.02627
686.0000	0.0281
685.0000	0.03009
684.0000	0.03222
683.0000	0.03449
682.0000	0.03689
681.0000	0.03945
680.0000	0.04211
679.0000	0.04485
678.0000	0.04764
677.0000	0.05041
676.0000	0.05314
675.0000	0.05583
674.0000	0.05852
673.0000	0.06112
672.0000	0.06373
671.0000	0.06614
670.0000	0.06862
669.0000	0.07092
668.0000	0.07324
667.0000	0.07539
666.0000	0.07752
665.0000	0.07945
664.0000	0.08139
663.0000	0.0832
662.0000	0.08487
661.0000	0.08642
660.0000	0.08781
659.0000	0.08911
658.0000	0.09031
657.0000	0.09124
656.0000	0.09212
655.0000	0.0928
654.0000	0.0934
653.0000	0.09383
652.0000	0.09413
651.0000	0.09436
650.0000	0.0944
649.0000	0.09434
648.0000	0.09412
647.0000	0.09389
646.0000	0.09361
645.0000	0.09325
644.0000	0.0928
643.0000	0.09223
642.0000	0.09164
641.0000	0.09102
640.0000	0.09041
639.0000	0.08968
638.0000	0.08892
637.0000	0.08808
636.0000	0.08728
635.0000	0.08653
634.0000	0.08576
633.0000	0.08501
632.0000	0.08428
631.0000	0.08345
630.0000	0.08269
629.0000	0.08186
628.0000	0.08107
627.0000	0.08027
626.0000	0.07952
625.0000	0.07882
624.0000	0.0781
623.0000	0.07735
622.0000	0.07662
621.0000	0.0759
620.0000	0.0753
619.0000	0.07466
618.0000	0.07408
617.0000	0.07348
616.0000	0.07287
615.0000	0.07226
614.0000	0.07162
613.0000	0.07096
612.0000	0.0703
611.0000	0.06964
610.0000	0.06892
609.0000	0.06821
608.0000	0.06745
607.0000	0.06665
606.0000	0.06593
605.0000	0.06509
604.0000	0.06432
603.0000	0.06354
602.0000	0.06278
601.0000	0.06196
600.0000	0.06106
599.0000	0.06014
598.0000	0.05917
597.0000	0.05821
596.0000	0.05729
595.0000	0.05635
594.0000	0.05548
593.0000	0.05451
592.0000	0.05362
591.0000	0.05267
590.0000	0.05175
589.0000	0.05087
588.0000	0.05004
587.0000	0.04918
586.0000	0.04824
585.0000	0.04732
584.0000	0.04635
583.0000	0.04551
582.0000	0.04465
581.0000	0.04385
580.0000	0.04301
579.0000	0.04227
578.0000	0.04149
577.0000	0.04083
576.0000	0.04014
575.0000	0.03948
574.0000	0.03882
573.0000	0.0382
572.0000	0.03752
571.0000	0.03692
570.0000	0.03626
569.0000	0.03567
568.0000	0.03504
567.0000	0.03448
566.0000	0.03392
565.0000	0.03341
564.0000	0.03294
563.0000	0.03253
562.0000	0.03206
561.0000	0.0316
560.0000	0.03111
559.0000	0.03071
558.0000	0.0303
557.0000	0.02995
556.0000	0.02954
555.0000	0.0292
554.0000	0.0288
553.0000	0.0285
552.0000	0.02815
551.0000	0.02789
550.0000	0.0276
549.0000	0.02731
548.0000	0.027
547.0000	0.02676
546.0000	0.02646
545.0000	0.02618
544.0000	0.02587
543.0000	0.02563
542.0000	0.0255
541.0000	0.02532
540.0000	0.02515
539.0000	0.02502
538.0000	0.02482
537.0000	0.02464
536.0000	0.02439
535.0000	0.02426
534.0000	0.02409
533.0000	0.02396
532.0000	0.02384
531.0000	0.02376
530.0000	0.02369
529.0000	0.02361
528.0000	0.02355
527.0000	0.02357
526.0000	0.02351
525.0000	0.02346
524.0000	0.02337
523.0000	0.02328
522.0000	0.02322
521.0000	0.02316
520.0000	0.02324
519.0000	0.02326
518.0000	0.02327
517.0000	0.02327
516.0000	0.02335
515.0000	0.02334
514.0000	0.02336
513.0000	0.0233
512.0000	0.02331
511.0000	0.02329
510.0000	0.02331
509.0000	0.02337
508.0000	0.02347
507.0000	0.0236
506.0000	0.02364
505.0000	0.02367
504.0000	0.02368
503.0000	0.02365
502.0000	0.02366
501.0000	0.02368
500.0000	0.02373
499.0000	0.0238
498.0000	0.02391
497.0000	0.02397
496.0000	0.02398
495.0000	0.02397
494.0000	0.02395
493.0000	0.02392
492.0000	0.02392
491.0000	0.02397
490.0000	0.02408
489.0000	0.02414
488.0000	0.02421
487.0000	0.02416
486.0000	0.02424
485.0000	0.02423
484.0000	0.02421
483.0000	0.02421
482.0000	0.02428
481.0000	0.02431
480.0000	0.02435
479.0000	0.02434
478.0000	0.02437
477.0000	0.02435
476.0000	0.02437
475.0000	0.02429
474.0000	0.02431
473.0000	0.02429
472.0000	0.02435
471.0000	0.02444
470.0000	0.02444
469.0000	0.02447
468.0000	0.0244
467.0000	0.02437
466.0000	0.02427
465.0000	0.0243
464.0000	0.0243
463.0000	0.0244
462.0000	0.02438
461.0000	0.0244
460.0000	0.0244
459.0000	0.0244
458.0000	0.02442
457.0000	0.02441
456.0000	0.02442
455.0000	0.02451
454.0000	0.02453
453.0000	0.02459
452.0000	0.02449
451.0000	0.02455
450.0000	0.02453
449.0000	0.02462
448.0000	0.02469
447.0000	0.02472
446.0000	0.02474
445.0000	0.02475
444.0000	0.02481
443.0000	0.02488
442.0000	0.02491
441.0000	0.02497
440.0000	0.02507
439.0000	0.02517
438.0000	0.02522
437.0000	0.0253
436.0000	0.02539
435.0000	0.02551
434.0000	0.02564
433.0000	0.02575
432.0000	0.02582
431.0000	0.02587
430.0000	0.02597
429.0000	0.02605
428.0000	0.02613
427.0000	0.0263
426.0000	0.02642
425.0000	0.02654
424.0000	0.02659
423.0000	0.02664
422.0000	0.02672
421.0000	0.0269
420.0000	0.0272
419.0000	0.02742
418.0000	0.02756
417.0000	0.02771
416.0000	0.02789
415.0000	0.02819
414.0000	0.02847
413.0000	0.0287
412.0000	0.0288
411.0000	0.02897
410.0000	0.02912
409.0000	0.02937
408.0000	0.02974
407.0000	0.03003
406.0000	0.03035
405.0000	0.03058
404.0000	0.03078
403.0000	0.03098
402.0000	0.03116
401.0000	0.03161
400.0000	0.03206
399.0000	0.03263
398.0000	0.03284
397.0000	0.0331
396.0000	0.03331
395.0000	0.03367
394.0000	0.03405
393.0000	0.03437
392.0000	0.03458
391.0000	0.03493
390.0000	0.03524
389.0000	0.03566
388.0000	0.03602
387.0000	0.03635
386.0000	0.03671
385.0000	0.03713
384.0000	0.03746
383.0000	0.03791
382.0000	0.03831
381.0000	0.03883
380.0000	0.03924
379.0000	0.03975
378.0000	0.04019
377.0000	0.04063
376.0000	0.04108
375.0000	0.04163
374.0000	0.04216
373.0000	0.04267
372.0000	0.04314
371.0000	0.04366
370.0000	0.04463
369.0000	0.04536
368.0000	0.04596
367.0000	0.04648
366.0000	0.04708
365.0000	0.04765
364.0000	0.0483
363.0000	0.04881
362.0000	0.04948
361.0000	0.05025
360.0000	0.05105
359.0000	0.05186
358.0000	0.05257
357.0000	0.05339
356.0000	0.05419
355.0000	0.05517
354.0000	0.05615
353.0000	0.05718
352.0000	0.05818
351.0000	0.059
350.0000	0.06014
349.0000	0.06121
348.0000	0.06257
347.0000	0.06374
346.0000	0.06498
345.0000	0.06635
344.0000	0.06773
343.0000	0.06923
342.0000	0.07052
341.0000	0.07187
340.0000	0.07425
339.0000	0.07554
338.0000	0.0771
337.0000	0.07878
336.0000	0.08024
335.0000	0.08191
334.0000	0.08334
333.0000	0.08505
332.0000	0.08658
331.0000	0.08813
330.0000	0.0895
329.0000	0.091
328.0000	0.09227
327.0000	0.09367
326.0000	0.09465
325.0000	0.09581
324.0000	0.09684
323.0000	0.09789
322.0000	0.0989
321.0000	0.09985
320.0000	0.10093
319.0000	0.10183
318.0000	0.10283
317.0000	0.1037
316.0000	0.10472
315.0000	0.10566
314.0000	0.10682
313.0000	0.10802
312.0000	0.10919
311.0000	0.11049
310.0000	0.11189
309.0000	0.1137
308.0000	0.11549
307.0000	0.11771
306.0000	0.12018
305.0000	0.12286
304.0000	0.12586
303.0000	0.12879
302.0000	0.13213
301.0000	0.13557
300.0000	0.13946
299.0000	0.14312
298.0000	0.14697
297.0000	0.1508
296.0000	0.15456
295.0000	0.15805
294.0000	0.16101
293.0000	0.16356
292.0000	0.16567
291.0000	0.16715
290.0000	0.16806
289.0000	0.16841
288.0000	0.16812
287.0000	0.16766
286.0000	0.16682
285.0000	0.16593
284.0000	0.16507
283.0000	0.16411
282.0000	0.16333
281.0000	0.16252
280.0000	0.16172
279.0000	0.16103
278.0000	0.16037
277.0000	0.15997
276.0000	0.15953
275.0000	0.15938
274.0000	0.15918
273.0000	0.15921
272.0000	0.1593
271.0000	0.15955
270.0000	0.15971
269.0000	0.16012
268.0000	0.16051
267.0000	0.16095
266.0000	0.16142
265.0000	0.16187
264.0000	0.16262
263.0000	0.16327
262.0000	0.16408
261.0000	0.16507
260.0000	0.16614
259.0000	0.16744
258.0000	0.16885
257.0000	0.17048
256.0000	0.1723
255.0000	0.1741
254.0000	0.1761
253.0000	0.17854
252.0000	0.1812
251.0000	0.18421
250.0000	0.18715
249.0000	0.19014
248.0000	0.19327
247.0000	0.19628
246.0000	0.19936
245.0000	0.20215
244.0000	0.205
243.0000	0.20792
242.0000	0.21084
241.0000	0.21375
240.0000	0.21663
239.0000	0.21971
238.0000	0.22318
237.0000	0.22709
236.0000	0.23123
235.0000	0.23572
234.0000	0.24079
233.0000	0.24665
232.0000	0.2533
231.0000	0.26071
230.0000	0.26897
229.0000	0.27842
228.0000	0.28903
227.0000	0.30103
226.0000	0.31432
225.0000	0.32934
224.0000	0.34627
223.0000	0.36533
222.0000	0.38665
221.0000	0.41052
220.0000	0.43703
219.0000	0.46646
218.0000	0.49885
217.0000	0.53497
216.0000	0.57506
215.0000	0.61898
214.0000	0.66753
213.0000	0.72126
212.0000	0.78081
211.0000	0.84645
210.0000	0.91902
209.0000	0.99912
208.0000	1.08706
207.0000	1.18278
206.0000	1.28578
205.0000	1.39495
204.0000	1.50843
203.0000	1.62126
202.0000	1.72469
201.0000	1.80821
200.0000	1.86195
199.0000	1.8834
198.0000	1.86703
197.0000	1.80965
196.0000	1.71877
195.0000	1.61017
194.0000	1.49122
193.0000	1.35045
192.0000	1.17283
191.0000	0.96238
190.0000	0.74924
