TITLE	
DATA TYPE	
ORIGIN	JASCO
OWNER	
DATE	19/08/29
TIME	13:21:08
SPECTROMETER/DATA SYSTEM	JASCO Corp., V-570, Rev. 1.00
RESOLUTION	
DELTAX	-1
XUNITS	NANOMETERS
YUNITS	ABSORBANCE
FIRSTX	840.0000
LASTX	190.0000
NPOINTS	651
FIRSTY	-0.00437
MAXY	1.09502
MINY	-0.00476
XYDATA
840.0000	-0.00437
839.0000	-0.00449
838.0000	-0.00461
837.0000	-0.00469
836.0000	-0.00476
835.0000	-0.00475
834.0000	-0.00463
833.0000	-0.0046
832.0000	-0.00467
831.0000	-0.00472
830.0000	-0.00463
829.0000	-0.00452
828.0000	-0.00447
827.0000	-0.00449
826.0000	-0.00444
825.0000	-0.00452
824.0000	-0.00456
823.0000	-0.00461
822.0000	-0.00451
821.0000	-0.00444
820.0000	-0.00429
819.0000	-0.00425
818.0000	-0.00432
817.0000	-0.00449
816.0000	-0.00452
815.0000	-0.00444
814.0000	-0.00441
813.0000	-0.00433
812.0000	-0.00434
811.0000	-0.00437
810.0000	-0.00422
809.0000	-0.00417
808.0000	-0.00408
807.0000	-0.00397
806.0000	-0.00398
805.0000	-0.0039
804.0000	-0.0039
803.0000	-0.00376
802.0000	-0.00378
801.0000	-0.0037
800.0000	-0.00369
799.0000	-0.00363
798.0000	-0.00354
797.0000	-0.00351
796.0000	-0.00346
795.0000	-0.00348
794.0000	-0.00342
793.0000	-0.00338
792.0000	-0.00336
791.0000	-0.00327
790.0000	-0.0032
789.0000	-0.00313
788.0000	-0.00297
787.0000	-0.00301
786.0000	-0.00289
785.0000	-0.00291
784.0000	-0.00272
783.0000	-0.00257
782.0000	-0.00248
781.0000	-0.00244
780.0000	-0.00234
779.0000	-0.00224
778.0000	-0.00214
777.0000	-0.00202
776.0000	-0.00199
775.0000	-0.00192
774.0000	-0.00193
773.0000	-0.00183
772.0000	-0.00175
771.0000	-0.00163
770.0000	-0.00145
769.0000	-0.00135
768.0000	-0.00124
767.0000	-0.00126
766.0000	-0.00119
765.0000	-0.00113
764.0000	-0.00101
763.0000	-8.8E-04
762.0000	-7.1E-04
761.0000	-5.5E-04
760.0000	-4.1E-04
759.0000	-2.5E-04
758.0000	-1E-04
757.0000	1.3E-04
756.0000	2.3E-04
755.0000	4.3E-04
754.0000	5.6E-04
753.0000	7.1E-04
752.0000	9.1E-04
751.0000	0.00101
750.0000	0.00123
749.0000	0.00139
748.0000	0.00157
747.0000	0.00178
746.0000	0.00192
745.0000	0.00209
744.0000	0.00235
743.0000	0.00265
742.0000	0.00299
741.0000	0.00328
740.0000	0.00376
739.0000	0.00422
738.0000	0.00465
737.0000	0.00499
736.0000	0.00526
735.0000	0.00562
734.0000	0.00602
733.0000	0.00644
732.0000	0.00688
731.0000	0.0073
730.0000	0.00774
729.0000	0.00823
728.0000	0.00883
727.0000	0.00945
726.0000	0.01019
725.0000	0.01088
724.0000	0.01162
723.0000	0.0124
722.0000	0.01334
721.0000	0.01445
720.0000	0.01555
719.0000	0.01678
718.0000	0.01813
717.0000	0.01965
716.0000	0.02123
715.0000	0.02295
714.0000	0.02493
713.0000	0.02711
712.0000	0.0295
711.0000	0.03215
710.0000	0.0351
709.0000	0.03837
708.0000	0.0421
707.0000	0.04627
706.0000	0.05091
705.0000	0.05602
704.0000	0.06174
703.0000	0.0682
702.0000	0.07546
701.0000	0.08357
700.0000	0.09257
699.0000	0.10259
698.0000	0.1137
697.0000	0.12608
696.0000	0.13978
695.0000	0.15492
694.0000	0.17165
693.0000	0.19006
692.0000	0.21038
691.0000	0.23278
690.0000	0.25738
689.0000	0.28427
688.0000	0.31354
687.0000	0.34533
686.0000	0.37952
685.0000	0.41615
684.0000	0.45502
683.0000	0.49613
682.0000	0.53909
681.0000	0.58375
680.0000	0.62986
679.0000	0.67673
678.0000	0.72361
677.0000	0.76964
676.0000	0.81423
675.0000	0.85717
674.0000	0.89783
673.0000	0.93545
672.0000	0.9696
671.0000	0.99972
670.0000	1.02579
669.0000	1.04757
668.0000	1.06504
667.0000	1.07834
666.0000	1.08755
665.0000	1.093
664.0000	1.09502
663.0000	1.094
662.0000	1.09032
661.0000	1.08437
660.0000	1.07644
659.0000	1.0667
658.0000	1.05558
657.0000	1.0432
656.0000	1.0299
655.0000	1.01562
654.0000	1.00054
653.0000	0.98467
652.0000	0.96815
651.0000	0.95113
650.0000	0.93348
649.0000	0.91545
648.0000	0.89697
647.0000	0.8784
646.0000	0.85968
645.0000	0.84118
644.0000	0.82283
643.0000	0.80484
642.0000	0.78733
641.0000	0.77031
640.0000	0.7541
639.0000	0.73861
638.0000	0.72399
637.0000	0.71018
636.0000	0.69729
635.0000	0.68536
634.0000	0.67449
633.0000	0.66448
632.0000	0.65544
631.0000	0.64723
630.0000	0.64
629.0000	0.63368
628.0000	0.62823
627.0000	0.62359
626.0000	0.61974
625.0000	0.61663
624.0000	0.61415
623.0000	0.61217
622.0000	0.61064
621.0000	0.60945
620.0000	0.60848
619.0000	0.60762
618.0000	0.60668
617.0000	0.60557
616.0000	0.60409
615.0000	0.60219
614.0000	0.59977
613.0000	0.59674
612.0000	0.59281
611.0000	0.58802
610.0000	0.58228
609.0000	0.57563
608.0000	0.56803
607.0000	0.55952
606.0000	0.55027
605.0000	0.54014
604.0000	0.52926
603.0000	0.5177
602.0000	0.5056
601.0000	0.49305
600.0000	0.48011
599.0000	0.46706
598.0000	0.4538
597.0000	0.44049
596.0000	0.42723
595.0000	0.41406
594.0000	0.40108
593.0000	0.38825
592.0000	0.37577
591.0000	0.36354
590.0000	0.35165
589.0000	0.34001
588.0000	0.32882
587.0000	0.318
586.0000	0.30746
585.0000	0.2973
584.0000	0.28741
583.0000	0.27799
582.0000	0.26889
581.0000	0.26025
580.0000	0.25187
579.0000	0.24395
578.0000	0.23633
577.0000	0.22912
576.0000	0.22223
575.0000	0.21565
574.0000	0.2093
573.0000	0.20324
572.0000	0.19743
571.0000	0.19189
570.0000	0.18649
569.0000	0.1813
568.0000	0.17629
567.0000	0.1714
566.0000	0.16665
565.0000	0.16199
564.0000	0.15759
563.0000	0.15326
562.0000	0.14895
561.0000	0.14473
560.0000	0.14048
559.0000	0.13639
558.0000	0.13229
557.0000	0.12834
556.0000	0.12441
555.0000	0.12057
554.0000	0.11669
553.0000	0.11307
552.0000	0.10947
551.0000	0.10602
550.0000	0.10262
549.0000	0.09934
548.0000	0.09611
547.0000	0.09302
546.0000	0.09001
545.0000	0.0872
544.0000	0.08446
543.0000	0.08182
542.0000	0.07939
541.0000	0.07705
540.0000	0.0748
539.0000	0.07269
538.0000	0.07074
537.0000	0.06885
536.0000	0.06702
535.0000	0.06526
534.0000	0.06364
533.0000	0.06214
532.0000	0.06074
531.0000	0.05944
530.0000	0.05825
529.0000	0.05716
528.0000	0.05615
527.0000	0.05525
526.0000	0.05438
525.0000	0.05354
524.0000	0.05275
523.0000	0.05203
522.0000	0.05144
521.0000	0.05086
520.0000	0.05021
519.0000	0.04987
518.0000	0.04961
517.0000	0.04926
516.0000	0.04905
515.0000	0.0488
514.0000	0.04865
513.0000	0.04845
512.0000	0.04832
511.0000	0.04818
510.0000	0.04813
509.0000	0.04809
508.0000	0.04816
507.0000	0.04825
506.0000	0.04827
505.0000	0.04822
504.0000	0.04813
503.0000	0.04805
502.0000	0.04792
501.0000	0.04783
500.0000	0.04773
499.0000	0.04768
498.0000	0.04753
497.0000	0.04735
496.0000	0.04713
495.0000	0.04682
494.0000	0.04641
493.0000	0.04596
492.0000	0.04554
491.0000	0.04513
490.0000	0.04479
489.0000	0.04435
488.0000	0.04391
487.0000	0.04341
486.0000	0.0429
485.0000	0.04236
484.0000	0.04172
483.0000	0.04116
482.0000	0.04061
481.0000	0.04006
480.0000	0.03952
479.0000	0.03895
478.0000	0.03846
477.0000	0.03782
476.0000	0.03723
475.0000	0.03659
474.0000	0.03605
473.0000	0.03556
472.0000	0.0351
471.0000	0.03462
470.0000	0.03414
469.0000	0.0336
468.0000	0.03303
467.0000	0.03249
466.0000	0.0319
465.0000	0.03138
464.0000	0.03092
463.0000	0.03052
462.0000	0.03002
461.0000	0.02947
460.0000	0.02892
459.0000	0.02838
458.0000	0.02789
457.0000	0.02739
456.0000	0.02692
455.0000	0.02655
454.0000	0.02599
453.0000	0.02553
452.0000	0.02492
451.0000	0.02449
450.0000	0.02396
449.0000	0.02358
448.0000	0.02317
447.0000	0.02284
446.0000	0.02243
445.0000	0.022
444.0000	0.02157
443.0000	0.02121
442.0000	0.02084
441.0000	0.02054
440.0000	0.02027
439.0000	0.02003
438.0000	0.01969
437.0000	0.01943
436.0000	0.01909
435.0000	0.01896
434.0000	0.01874
433.0000	0.01861
432.0000	0.0184
431.0000	0.01822
430.0000	0.01798
429.0000	0.01775
428.0000	0.01765
427.0000	0.01755
426.0000	0.0175
425.0000	0.01734
424.0000	0.01725
423.0000	0.01712
422.0000	0.01702
421.0000	0.01692
420.0000	0.01706
419.0000	0.01717
418.0000	0.01727
417.0000	0.01737
416.0000	0.0175
415.0000	0.01778
414.0000	0.01811
413.0000	0.01854
412.0000	0.01887
411.0000	0.01928
410.0000	0.0198
409.0000	0.02049
408.0000	0.02126
407.0000	0.02199
406.0000	0.02276
405.0000	0.02355
404.0000	0.02427
403.0000	0.02501
402.0000	0.02579
401.0000	0.02675
400.0000	0.02757
399.0000	0.02832
398.0000	0.02877
397.0000	0.02921
396.0000	0.02953
395.0000	0.02986
394.0000	0.03006
393.0000	0.03022
392.0000	0.03016
391.0000	0.03011
390.0000	0.03001
389.0000	0.03005
388.0000	0.02997
387.0000	0.02992
386.0000	0.02973
385.0000	0.02956
384.0000	0.02938
383.0000	0.02937
382.0000	0.02938
381.0000	0.0294
380.0000	0.02938
379.0000	0.02946
378.0000	0.02946
377.0000	0.02954
376.0000	0.02956
375.0000	0.02961
374.0000	0.02969
373.0000	0.02965
372.0000	0.0297
371.0000	0.02981
370.0000	0.03014
369.0000	0.03048
368.0000	0.03072
367.0000	0.03091
366.0000	0.03119
365.0000	0.03154
364.0000	0.03197
363.0000	0.03246
362.0000	0.03301
361.0000	0.03373
360.0000	0.03452
359.0000	0.03537
358.0000	0.03624
357.0000	0.03719
356.0000	0.03821
355.0000	0.03937
354.0000	0.04056
353.0000	0.04183
352.0000	0.04315
351.0000	0.04441
350.0000	0.04594
349.0000	0.04751
348.0000	0.04929
347.0000	0.05105
346.0000	0.05307
345.0000	0.05544
344.0000	0.05814
343.0000	0.06118
342.0000	0.06446
341.0000	0.06802
340.0000	0.07417
339.0000	0.07809
338.0000	0.08296
337.0000	0.08872
336.0000	0.0947
335.0000	0.10088
334.0000	0.10706
333.0000	0.11309
332.0000	0.11897
331.0000	0.12435
330.0000	0.12917
329.0000	0.13321
328.0000	0.13649
327.0000	0.13948
326.0000	0.14158
325.0000	0.14351
324.0000	0.14527
323.0000	0.14691
322.0000	0.14891
321.0000	0.15081
320.0000	0.15303
319.0000	0.1554
318.0000	0.15812
317.0000	0.16134
316.0000	0.1649
315.0000	0.16881
314.0000	0.17349
313.0000	0.17911
312.0000	0.18628
311.0000	0.19529
310.0000	0.20656
309.0000	0.2203
308.0000	0.23658
307.0000	0.25584
306.0000	0.27781
305.0000	0.30232
304.0000	0.32902
303.0000	0.35766
302.0000	0.38816
301.0000	0.4202
300.0000	0.45311
299.0000	0.48594
298.0000	0.51748
297.0000	0.54702
296.0000	0.57329
295.0000	0.59533
294.0000	0.61194
293.0000	0.62213
292.0000	0.62552
291.0000	0.62185
290.0000	0.6118
289.0000	0.59668
288.0000	0.57785
287.0000	0.55695
286.0000	0.53501
285.0000	0.51285
284.0000	0.49122
283.0000	0.46967
282.0000	0.4486
281.0000	0.42793
280.0000	0.40757
279.0000	0.38816
278.0000	0.36932
277.0000	0.35176
276.0000	0.33533
275.0000	0.32043
274.0000	0.30689
273.0000	0.29448
272.0000	0.28295
271.0000	0.27221
270.0000	0.26174
269.0000	0.25149
268.0000	0.24135
267.0000	0.23162
266.0000	0.2225
265.0000	0.21435
264.0000	0.20758
263.0000	0.20215
262.0000	0.19834
261.0000	0.1959
260.0000	0.19488
259.0000	0.19525
258.0000	0.19699
257.0000	0.20013
256.0000	0.20493
255.0000	0.21131
254.0000	0.21962
253.0000	0.22993
252.0000	0.24172
251.0000	0.25468
250.0000	0.26765
249.0000	0.27958
248.0000	0.28886
247.0000	0.29436
246.0000	0.2955
245.0000	0.29255
244.0000	0.28639
243.0000	0.27787
242.0000	0.26754
241.0000	0.25607
240.0000	0.24425
239.0000	0.23228
238.0000	0.22063
237.0000	0.20976
236.0000	0.19956
235.0000	0.19062
234.0000	0.18244
233.0000	0.17569
232.0000	0.17014
231.0000	0.16593
230.0000	0.16251
229.0000	0.15988
228.0000	0.15765
227.0000	0.15597
226.0000	0.15458
225.0000	0.15363
224.0000	0.15324
223.0000	0.15343
222.0000	0.15466
221.0000	0.15652
220.0000	0.15901
219.0000	0.16187
218.0000	0.16506
217.0000	0.16855
216.0000	0.17233
215.0000	0.1761
214.0000	0.18007
213.0000	0.18428
212.0000	0.18854
211.0000	0.19273
210.0000	0.19737
209.0000	0.20233
208.0000	0.20776
207.0000	0.21345
206.0000	0.21952
205.0000	0.2257
204.0000	0.23167
203.0000	0.23748
202.0000	0.24293
201.0000	0.24796
200.0000	0.25229
199.0000	0.25611
198.0000	0.25942
197.0000	0.26353
196.0000	0.26842
195.0000	0.27356
194.0000	0.27867
193.0000	0.28327
192.0000	0.28648
191.0000	0.28481
190.0000	0.27687
