TITLE	
DATA TYPE	
ORIGIN	JASCO
OWNER	
DATE	19/08/29
TIME	14:28:56
SPECTROMETER/DATA SYSTEM	JASCO Corp., V-570, Rev. 1.00
RESOLUTION	
DELTAX	-1
XUNITS	NANOMETERS
YUNITS	ABSORBANCE
FIRSTX	840.0000
LASTX	190.0000
NPOINTS	651
FIRSTY	0.01494
MAXY	0.40784
MINY	0.01464
XYDATA
840.0000	0.01494
839.0000	0.0149
838.0000	0.01482
837.0000	0.01487
836.0000	0.01485
835.0000	0.01493
834.0000	0.01496
833.0000	0.01495
832.0000	0.01492
831.0000	0.01478
830.0000	0.01481
829.0000	0.01484
828.0000	0.01473
827.0000	0.01466
826.0000	0.01468
825.0000	0.01464
824.0000	0.01481
823.0000	0.01485
822.0000	0.01491
821.0000	0.01476
820.0000	0.01477
819.0000	0.01479
818.0000	0.01479
817.0000	0.0148
816.0000	0.0149
815.0000	0.01496
814.0000	0.01495
813.0000	0.0149
812.0000	0.01487
811.0000	0.01486
810.0000	0.0149
809.0000	0.01492
808.0000	0.01497
807.0000	0.01514
806.0000	0.01519
805.0000	0.01522
804.0000	0.01518
803.0000	0.01513
802.0000	0.01516
801.0000	0.01516
800.0000	0.01524
799.0000	0.01522
798.0000	0.01531
797.0000	0.01525
796.0000	0.01536
795.0000	0.01532
794.0000	0.01533
793.0000	0.01533
792.0000	0.01543
791.0000	0.01549
790.0000	0.01557
789.0000	0.01552
788.0000	0.01564
787.0000	0.01558
786.0000	0.01575
785.0000	0.01579
784.0000	0.01591
783.0000	0.01598
782.0000	0.01598
781.0000	0.01611
780.0000	0.01614
779.0000	0.01615
778.0000	0.01619
777.0000	0.01636
776.0000	0.01639
775.0000	0.01648
774.0000	0.01645
773.0000	0.01645
772.0000	0.01654
771.0000	0.01657
770.0000	0.01678
769.0000	0.01684
768.0000	0.01685
767.0000	0.01687
766.0000	0.01691
765.0000	0.017
764.0000	0.01716
763.0000	0.01727
762.0000	0.01737
761.0000	0.01755
760.0000	0.01765
759.0000	0.01777
758.0000	0.01779
757.0000	0.01797
756.0000	0.01801
755.0000	0.01823
754.0000	0.01833
753.0000	0.0184
752.0000	0.01852
751.0000	0.01851
750.0000	0.01869
749.0000	0.01872
748.0000	0.01882
747.0000	0.01884
746.0000	0.01896
745.0000	0.01913
744.0000	0.0193
743.0000	0.01942
742.0000	0.01951
741.0000	0.01954
740.0000	0.01968
739.0000	0.01988
738.0000	0.02014
737.0000	0.02024
736.0000	0.0203
735.0000	0.0203
734.0000	0.02035
733.0000	0.02047
732.0000	0.02056
731.0000	0.02056
730.0000	0.02052
729.0000	0.02064
728.0000	0.02069
727.0000	0.02082
726.0000	0.02098
725.0000	0.02111
724.0000	0.02128
723.0000	0.02144
722.0000	0.02165
721.0000	0.02194
720.0000	0.02219
719.0000	0.02244
718.0000	0.02276
717.0000	0.0231
716.0000	0.02345
715.0000	0.02379
714.0000	0.0242
713.0000	0.02466
712.0000	0.02517
711.0000	0.02574
710.0000	0.02631
709.0000	0.02701
708.0000	0.02777
707.0000	0.02864
706.0000	0.0296
705.0000	0.03065
704.0000	0.03181
703.0000	0.03312
702.0000	0.03461
701.0000	0.03629
700.0000	0.03813
699.0000	0.04013
698.0000	0.04233
697.0000	0.04482
696.0000	0.04746
695.0000	0.05036
694.0000	0.05351
693.0000	0.05696
692.0000	0.06074
691.0000	0.06488
690.0000	0.06942
689.0000	0.07438
688.0000	0.07973
687.0000	0.08559
686.0000	0.09184
685.0000	0.09854
684.0000	0.10564
683.0000	0.11321
682.0000	0.12112
681.0000	0.12931
680.0000	0.13784
679.0000	0.1465
678.0000	0.1552
677.0000	0.1638
676.0000	0.17216
675.0000	0.18036
674.0000	0.18832
673.0000	0.19583
672.0000	0.20298
671.0000	0.20958
670.0000	0.21578
669.0000	0.22138
668.0000	0.2265
667.0000	0.23104
666.0000	0.2351
665.0000	0.23863
664.0000	0.24168
663.0000	0.24428
662.0000	0.24637
661.0000	0.24803
660.0000	0.24929
659.0000	0.2502
658.0000	0.25078
657.0000	0.25089
656.0000	0.25071
655.0000	0.25017
654.0000	0.24933
653.0000	0.24816
652.0000	0.24668
651.0000	0.24501
650.0000	0.243
649.0000	0.24082
648.0000	0.23829
647.0000	0.2357
646.0000	0.23296
645.0000	0.23014
644.0000	0.22722
643.0000	0.22417
642.0000	0.22114
641.0000	0.21805
640.0000	0.21503
639.0000	0.21199
638.0000	0.20905
637.0000	0.20611
636.0000	0.20325
635.0000	0.20046
634.0000	0.19779
633.0000	0.19524
632.0000	0.19278
631.0000	0.19042
630.0000	0.18823
629.0000	0.18605
628.0000	0.18398
627.0000	0.18197
626.0000	0.18012
625.0000	0.17834
624.0000	0.17662
623.0000	0.175
622.0000	0.17352
621.0000	0.17208
620.0000	0.17077
619.0000	0.16951
618.0000	0.1682
617.0000	0.16695
616.0000	0.16563
615.0000	0.16437
614.0000	0.163
613.0000	0.1616
612.0000	0.16007
611.0000	0.15845
610.0000	0.15677
609.0000	0.15508
608.0000	0.1533
607.0000	0.15139
606.0000	0.14945
605.0000	0.14735
604.0000	0.14522
603.0000	0.143
602.0000	0.14079
601.0000	0.13852
600.0000	0.13617
599.0000	0.13378
598.0000	0.13129
597.0000	0.12875
596.0000	0.1263
595.0000	0.1238
594.0000	0.1214
593.0000	0.11888
592.0000	0.11649
591.0000	0.11403
590.0000	0.11165
589.0000	0.10933
588.0000	0.10716
587.0000	0.10496
586.0000	0.10273
585.0000	0.10059
584.0000	0.0984
583.0000	0.09632
582.0000	0.09428
581.0000	0.0923
580.0000	0.09039
579.0000	0.08859
578.0000	0.08686
577.0000	0.08522
576.0000	0.08359
575.0000	0.08206
574.0000	0.08058
573.0000	0.07911
572.0000	0.07772
571.0000	0.07642
570.0000	0.07515
569.0000	0.07385
568.0000	0.07259
567.0000	0.07141
566.0000	0.07026
565.0000	0.06913
564.0000	0.06809
563.0000	0.06711
562.0000	0.06609
561.0000	0.06514
560.0000	0.06414
559.0000	0.06324
558.0000	0.06234
557.0000	0.06148
556.0000	0.06061
555.0000	0.05982
554.0000	0.05897
553.0000	0.05824
552.0000	0.05747
551.0000	0.05679
550.0000	0.05612
549.0000	0.05548
548.0000	0.05484
547.0000	0.05426
546.0000	0.0536
545.0000	0.05301
544.0000	0.05242
543.0000	0.05185
542.0000	0.05142
541.0000	0.05096
540.0000	0.05061
539.0000	0.05023
538.0000	0.04983
537.0000	0.04948
536.0000	0.04911
535.0000	0.0488
534.0000	0.0484
533.0000	0.04807
532.0000	0.0478
531.0000	0.04756
530.0000	0.04744
529.0000	0.04731
528.0000	0.04721
527.0000	0.04708
526.0000	0.0469
525.0000	0.04672
524.0000	0.04659
523.0000	0.04641
522.0000	0.0463
521.0000	0.04616
520.0000	0.04626
519.0000	0.0463
518.0000	0.04634
517.0000	0.04636
516.0000	0.04635
515.0000	0.04633
514.0000	0.04633
513.0000	0.04628
512.0000	0.04627
511.0000	0.04623
510.0000	0.04632
509.0000	0.04638
508.0000	0.04649
507.0000	0.04663
506.0000	0.0467
505.0000	0.04675
504.0000	0.04675
503.0000	0.04677
502.0000	0.04676
501.0000	0.04679
500.0000	0.04682
499.0000	0.04688
498.0000	0.04694
497.0000	0.04699
496.0000	0.04704
495.0000	0.04701
494.0000	0.04691
493.0000	0.0468
492.0000	0.04682
491.0000	0.04681
490.0000	0.04684
489.0000	0.04685
488.0000	0.04683
487.0000	0.04677
486.0000	0.04677
485.0000	0.0467
484.0000	0.04658
483.0000	0.04652
482.0000	0.04649
481.0000	0.04639
480.0000	0.04632
479.0000	0.04623
478.0000	0.0462
477.0000	0.04607
476.0000	0.04601
475.0000	0.04582
474.0000	0.04577
473.0000	0.04574
472.0000	0.04577
471.0000	0.04576
470.0000	0.04566
469.0000	0.04555
468.0000	0.04535
467.0000	0.04524
466.0000	0.04513
465.0000	0.04508
464.0000	0.04505
463.0000	0.045
462.0000	0.04489
461.0000	0.04471
460.0000	0.04465
459.0000	0.0445
458.0000	0.04446
457.0000	0.04441
456.0000	0.04438
455.0000	0.04441
454.0000	0.04425
453.0000	0.04419
452.0000	0.04398
451.0000	0.04394
450.0000	0.04381
449.0000	0.04385
448.0000	0.04386
447.0000	0.04388
446.0000	0.04382
445.0000	0.04374
444.0000	0.04366
443.0000	0.04365
442.0000	0.0436
441.0000	0.04357
440.0000	0.04366
439.0000	0.04368
438.0000	0.04368
437.0000	0.04369
436.0000	0.0437
435.0000	0.04378
434.0000	0.0438
433.0000	0.04391
432.0000	0.04396
431.0000	0.04402
430.0000	0.04403
429.0000	0.04402
428.0000	0.04412
427.0000	0.04425
426.0000	0.04441
425.0000	0.04451
424.0000	0.04453
423.0000	0.04452
422.0000	0.04451
421.0000	0.04463
420.0000	0.04484
419.0000	0.04503
418.0000	0.04522
417.0000	0.04529
416.0000	0.04542
415.0000	0.04561
414.0000	0.04584
413.0000	0.04609
412.0000	0.04628
411.0000	0.04653
410.0000	0.04672
409.0000	0.04696
408.0000	0.04736
407.0000	0.04767
406.0000	0.04805
405.0000	0.04841
404.0000	0.04868
403.0000	0.04891
402.0000	0.04929
401.0000	0.04979
400.0000	0.05033
399.0000	0.0508
398.0000	0.05109
397.0000	0.05132
396.0000	0.05156
395.0000	0.05188
394.0000	0.05229
393.0000	0.05266
392.0000	0.05293
391.0000	0.05317
390.0000	0.05349
389.0000	0.05386
388.0000	0.05421
387.0000	0.05457
386.0000	0.05486
385.0000	0.05516
384.0000	0.05547
383.0000	0.0558
382.0000	0.05624
381.0000	0.05667
380.0000	0.05702
379.0000	0.05744
378.0000	0.05784
377.0000	0.05829
376.0000	0.05869
375.0000	0.05914
374.0000	0.05962
373.0000	0.06001
372.0000	0.06041
371.0000	0.06085
370.0000	0.06168
369.0000	0.06237
368.0000	0.06307
367.0000	0.0637
366.0000	0.0642
365.0000	0.06468
364.0000	0.06527
363.0000	0.06585
362.0000	0.06656
361.0000	0.06731
360.0000	0.06814
359.0000	0.06898
358.0000	0.06977
357.0000	0.07071
356.0000	0.07164
355.0000	0.07271
354.0000	0.07377
353.0000	0.07494
352.0000	0.07608
351.0000	0.07717
350.0000	0.07847
349.0000	0.07976
348.0000	0.08127
347.0000	0.08262
346.0000	0.08413
345.0000	0.08592
344.0000	0.08767
343.0000	0.08953
342.0000	0.09127
341.0000	0.09313
340.0000	0.09596
339.0000	0.09766
338.0000	0.09974
337.0000	0.10221
336.0000	0.1045
335.0000	0.10696
334.0000	0.10923
333.0000	0.11165
332.0000	0.11362
331.0000	0.11589
330.0000	0.11783
329.0000	0.11977
328.0000	0.12129
327.0000	0.12281
326.0000	0.12411
325.0000	0.12538
324.0000	0.12651
323.0000	0.12756
322.0000	0.12852
321.0000	0.12954
320.0000	0.13083
319.0000	0.13205
318.0000	0.13312
317.0000	0.13411
316.0000	0.13521
315.0000	0.13635
314.0000	0.13786
313.0000	0.13941
312.0000	0.14136
311.0000	0.1436
310.0000	0.14632
309.0000	0.14952
308.0000	0.15322
307.0000	0.15783
306.0000	0.16312
305.0000	0.16892
304.0000	0.17521
303.0000	0.18176
302.0000	0.18908
301.0000	0.19669
300.0000	0.20472
299.0000	0.2126
298.0000	0.22045
297.0000	0.22798
296.0000	0.23474
295.0000	0.24078
294.0000	0.24562
293.0000	0.24906
292.0000	0.25111
291.0000	0.2514
290.0000	0.25019
289.0000	0.24782
288.0000	0.24436
287.0000	0.24033
286.0000	0.23601
285.0000	0.23155
284.0000	0.22733
283.0000	0.22293
282.0000	0.21874
281.0000	0.21449
280.0000	0.21034
279.0000	0.20657
278.0000	0.20288
277.0000	0.1996
276.0000	0.1963
275.0000	0.19349
274.0000	0.19082
273.0000	0.18856
272.0000	0.18635
271.0000	0.18439
270.0000	0.18237
269.0000	0.18079
268.0000	0.17917
267.0000	0.17777
266.0000	0.17641
265.0000	0.17514
264.0000	0.17427
263.0000	0.17353
262.0000	0.17309
261.0000	0.17282
260.0000	0.17293
259.0000	0.17325
258.0000	0.17397
257.0000	0.17504
256.0000	0.17647
255.0000	0.17813
254.0000	0.18023
253.0000	0.18274
252.0000	0.18562
251.0000	0.18875
250.0000	0.19201
249.0000	0.19515
248.0000	0.19793
247.0000	0.19999
246.0000	0.20118
245.0000	0.20163
244.0000	0.20142
243.0000	0.20083
242.0000	0.19993
241.0000	0.19869
240.0000	0.1974
239.0000	0.19631
238.0000	0.19534
237.0000	0.19492
236.0000	0.19464
235.0000	0.19496
234.0000	0.1956
233.0000	0.19707
232.0000	0.19884
231.0000	0.20119
230.0000	0.20388
229.0000	0.20725
228.0000	0.21101
227.0000	0.21523
226.0000	0.21998
225.0000	0.22514
224.0000	0.23075
223.0000	0.23659
222.0000	0.24314
221.0000	0.25018
220.0000	0.25777
219.0000	0.26555
218.0000	0.27366
217.0000	0.28187
216.0000	0.29035
215.0000	0.2987
214.0000	0.30739
213.0000	0.31586
212.0000	0.3242
211.0000	0.33203
210.0000	0.33968
209.0000	0.34698
208.0000	0.3541
207.0000	0.36047
206.0000	0.36647
205.0000	0.37204
204.0000	0.37712
203.0000	0.38166
202.0000	0.38575
201.0000	0.38885
200.0000	0.39172
199.0000	0.39393
198.0000	0.39663
197.0000	0.39863
196.0000	0.40034
195.0000	0.40213
194.0000	0.40524
193.0000	0.40784
192.0000	0.40771
191.0000	0.39486
190.0000	0.36751
