TITLE	
DATA TYPE	
ORIGIN	JASCO
OWNER	
DATE	19/08/29
TIME	13:31:15
SPECTROMETER/DATA SYSTEM	JASCO Corp., V-570, Rev. 1.00
RESOLUTION	
DELTAX	-1
XUNITS	NANOMETERS
YUNITS	ABSORBANCE
FIRSTX	840.0000
LASTX	190.0000
NPOINTS	651
FIRSTY	0.00373
MAXY	0.74873
MINY	0.00254
XYDATA
840.0000	0.00373
839.0000	0.00369
838.0000	0.0035
837.0000	0.00344
836.0000	0.00327
835.0000	0.00331
834.0000	0.00325
833.0000	0.00319
832.0000	0.0031
831.0000	0.00303
830.0000	0.00313
829.0000	0.00312
828.0000	0.00301
827.0000	0.00289
826.0000	0.00293
825.0000	0.00275
824.0000	0.00282
823.0000	0.00273
822.0000	0.00278
821.0000	0.0027
820.0000	0.00274
819.0000	0.00274
818.0000	0.00268
817.0000	0.00259
816.0000	0.00254
815.0000	0.00262
814.0000	0.00261
813.0000	0.00271
812.0000	0.00263
811.0000	0.00255
810.0000	0.00261
809.0000	0.00264
808.0000	0.00277
807.0000	0.0028
806.0000	0.00282
805.0000	0.00283
804.0000	0.00293
803.0000	0.00304
802.0000	0.00302
801.0000	0.00299
800.0000	0.00297
799.0000	0.0029
798.0000	0.003
797.0000	0.00307
796.0000	0.00316
795.0000	0.00309
794.0000	0.00307
793.0000	0.00311
792.0000	0.00319
791.0000	0.00328
790.0000	0.00326
789.0000	0.00325
788.0000	0.00338
787.0000	0.00338
786.0000	0.00353
785.0000	0.00355
784.0000	0.00362
783.0000	0.00367
782.0000	0.00364
781.0000	0.00377
780.0000	0.00389
779.0000	0.00393
778.0000	0.00399
777.0000	0.00402
776.0000	0.00401
775.0000	0.00403
774.0000	0.00407
773.0000	0.00413
772.0000	0.00418
771.0000	0.00421
770.0000	0.0044
769.0000	0.00443
768.0000	0.00456
767.0000	0.00452
766.0000	0.00453
765.0000	0.00454
764.0000	0.00466
763.0000	0.00475
762.0000	0.00483
761.0000	0.00496
760.0000	0.00505
759.0000	0.00524
758.0000	0.00532
757.0000	0.00543
756.0000	0.00552
755.0000	0.00564
754.0000	0.00576
753.0000	0.00581
752.0000	0.00598
751.0000	0.006
750.0000	0.00613
749.0000	0.00615
748.0000	0.00626
747.0000	0.00631
746.0000	0.00642
745.0000	0.00656
744.0000	0.00676
743.0000	0.00693
742.0000	0.00717
741.0000	0.00732
740.0000	0.00754
739.0000	0.00776
738.0000	0.0081
737.0000	0.00832
736.0000	0.00843
735.0000	0.00854
734.0000	0.00874
733.0000	0.00904
732.0000	0.00934
731.0000	0.00954
730.0000	0.00978
729.0000	0.01009
728.0000	0.01043
727.0000	0.01078
726.0000	0.0112
725.0000	0.01168
724.0000	0.01223
723.0000	0.01274
722.0000	0.01335
721.0000	0.01411
720.0000	0.01493
719.0000	0.01574
718.0000	0.01664
717.0000	0.01765
716.0000	0.01882
715.0000	0.02006
714.0000	0.02146
713.0000	0.02305
712.0000	0.02476
711.0000	0.02663
710.0000	0.02866
709.0000	0.03098
708.0000	0.03362
707.0000	0.03661
706.0000	0.03986
705.0000	0.04348
704.0000	0.04756
703.0000	0.05212
702.0000	0.05724
701.0000	0.06294
700.0000	0.06928
699.0000	0.07632
698.0000	0.08411
697.0000	0.09272
696.0000	0.10222
695.0000	0.11267
694.0000	0.12428
693.0000	0.13704
692.0000	0.15108
691.0000	0.16639
690.0000	0.18317
689.0000	0.20143
688.0000	0.22121
687.0000	0.24264
686.0000	0.26566
685.0000	0.29028
684.0000	0.31635
683.0000	0.34374
682.0000	0.37231
681.0000	0.40184
680.0000	0.43235
679.0000	0.46329
678.0000	0.49419
677.0000	0.52445
676.0000	0.55385
675.0000	0.58212
674.0000	0.60893
673.0000	0.6338
672.0000	0.65662
671.0000	0.67696
670.0000	0.69478
669.0000	0.70995
668.0000	0.72244
667.0000	0.73241
666.0000	0.73989
665.0000	0.74494
664.0000	0.74775
663.0000	0.74873
662.0000	0.74791
661.0000	0.74563
660.0000	0.74188
659.0000	0.73699
658.0000	0.73108
657.0000	0.72411
656.0000	0.71642
655.0000	0.70801
654.0000	0.69896
653.0000	0.68924
652.0000	0.67887
651.0000	0.66807
650.0000	0.65675
649.0000	0.64505
648.0000	0.63299
647.0000	0.62079
646.0000	0.60854
645.0000	0.59621
644.0000	0.58399
643.0000	0.57182
642.0000	0.55985
641.0000	0.54812
640.0000	0.53684
639.0000	0.52606
638.0000	0.51582
637.0000	0.50605
636.0000	0.49682
635.0000	0.48814
634.0000	0.48
633.0000	0.47241
632.0000	0.4654
631.0000	0.45891
630.0000	0.45303
629.0000	0.44769
628.0000	0.4429
627.0000	0.43857
626.0000	0.43475
625.0000	0.43137
624.0000	0.42839
623.0000	0.42573
622.0000	0.42342
621.0000	0.42125
620.0000	0.41929
619.0000	0.41742
618.0000	0.41552
617.0000	0.41362
616.0000	0.4115
615.0000	0.40921
614.0000	0.40651
613.0000	0.40354
612.0000	0.40012
611.0000	0.39629
610.0000	0.39191
609.0000	0.38705
608.0000	0.38167
607.0000	0.3758
606.0000	0.36955
605.0000	0.36286
604.0000	0.35576
603.0000	0.34832
602.0000	0.34058
601.0000	0.33264
600.0000	0.32449
599.0000	0.31625
598.0000	0.30789
597.0000	0.29946
596.0000	0.29105
595.0000	0.28268
594.0000	0.27444
593.0000	0.26623
592.0000	0.25824
591.0000	0.25034
590.0000	0.2427
589.0000	0.23524
588.0000	0.22804
587.0000	0.22104
586.0000	0.21417
585.0000	0.20754
584.0000	0.20108
583.0000	0.19492
582.0000	0.18893
581.0000	0.1832
580.0000	0.17769
579.0000	0.17249
578.0000	0.16747
577.0000	0.16273
576.0000	0.15815
575.0000	0.15382
574.0000	0.14963
573.0000	0.14563
572.0000	0.14176
571.0000	0.13805
570.0000	0.13444
569.0000	0.13094
568.0000	0.1276
567.0000	0.1244
566.0000	0.12128
565.0000	0.11821
564.0000	0.11528
563.0000	0.11242
562.0000	0.10961
561.0000	0.10686
560.0000	0.10409
559.0000	0.10146
558.0000	0.09886
557.0000	0.09631
556.0000	0.09378
555.0000	0.09137
554.0000	0.08895
553.0000	0.08664
552.0000	0.08438
551.0000	0.08222
550.0000	0.08008
549.0000	0.07801
548.0000	0.07604
547.0000	0.07417
546.0000	0.07233
545.0000	0.07052
544.0000	0.06877
543.0000	0.06714
542.0000	0.06568
541.0000	0.06426
540.0000	0.06294
539.0000	0.06167
538.0000	0.06047
537.0000	0.05929
536.0000	0.05813
535.0000	0.05708
534.0000	0.05609
533.0000	0.05518
532.0000	0.05433
531.0000	0.05354
530.0000	0.05284
529.0000	0.05225
528.0000	0.05167
527.0000	0.05118
526.0000	0.05068
525.0000	0.05017
524.0000	0.04968
523.0000	0.04919
522.0000	0.04881
521.0000	0.04846
520.0000	0.04813
519.0000	0.04795
518.0000	0.0478
517.0000	0.04769
516.0000	0.04765
515.0000	0.04748
514.0000	0.04743
513.0000	0.04723
512.0000	0.04719
511.0000	0.04713
510.0000	0.04715
509.0000	0.04719
508.0000	0.04727
507.0000	0.04733
506.0000	0.04736
505.0000	0.04733
504.0000	0.04734
503.0000	0.04728
502.0000	0.04717
501.0000	0.0471
500.0000	0.04697
499.0000	0.04695
498.0000	0.04685
497.0000	0.04674
496.0000	0.04659
495.0000	0.04634
494.0000	0.04602
493.0000	0.0457
492.0000	0.04543
491.0000	0.04513
490.0000	0.04486
489.0000	0.04455
488.0000	0.04426
487.0000	0.04386
486.0000	0.0435
485.0000	0.04311
484.0000	0.04265
483.0000	0.04222
482.0000	0.04181
481.0000	0.04141
480.0000	0.04101
479.0000	0.04058
478.0000	0.04023
477.0000	0.03975
476.0000	0.03929
475.0000	0.0388
474.0000	0.03839
473.0000	0.03801
472.0000	0.03762
471.0000	0.03726
470.0000	0.03687
469.0000	0.03646
468.0000	0.03595
467.0000	0.03554
466.0000	0.0351
465.0000	0.0348
464.0000	0.03447
463.0000	0.03417
462.0000	0.03375
461.0000	0.0333
460.0000	0.03286
459.0000	0.03244
458.0000	0.03204
457.0000	0.03172
456.0000	0.0314
455.0000	0.03111
454.0000	0.0307
453.0000	0.03036
452.0000	0.02988
451.0000	0.02951
450.0000	0.02908
449.0000	0.02883
448.0000	0.02856
447.0000	0.02833
446.0000	0.02802
445.0000	0.02772
444.0000	0.02743
443.0000	0.02716
442.0000	0.02686
441.0000	0.02659
440.0000	0.02637
439.0000	0.02619
438.0000	0.026
437.0000	0.02585
436.0000	0.02565
435.0000	0.02551
434.0000	0.02537
433.0000	0.02526
432.0000	0.02515
431.0000	0.02501
430.0000	0.02487
429.0000	0.02472
428.0000	0.02463
427.0000	0.02459
426.0000	0.02454
425.0000	0.02453
424.0000	0.02449
423.0000	0.02439
422.0000	0.02438
421.0000	0.0244
420.0000	0.0245
419.0000	0.02454
418.0000	0.02463
417.0000	0.0246
416.0000	0.02466
415.0000	0.02487
414.0000	0.02527
413.0000	0.02568
412.0000	0.02602
411.0000	0.02648
410.0000	0.02685
409.0000	0.02731
408.0000	0.02792
407.0000	0.02847
406.0000	0.02905
405.0000	0.02965
404.0000	0.03026
403.0000	0.03087
402.0000	0.03153
401.0000	0.03231
400.0000	0.03305
399.0000	0.03373
398.0000	0.0342
397.0000	0.03452
396.0000	0.03483
395.0000	0.03514
394.0000	0.03552
393.0000	0.03582
392.0000	0.03592
391.0000	0.03608
390.0000	0.0362
389.0000	0.03641
388.0000	0.03645
387.0000	0.03654
386.0000	0.03656
385.0000	0.03662
384.0000	0.03667
383.0000	0.03676
382.0000	0.03701
381.0000	0.03713
380.0000	0.03734
379.0000	0.03753
378.0000	0.03778
377.0000	0.03808
376.0000	0.03824
375.0000	0.0385
374.0000	0.03872
373.0000	0.03902
372.0000	0.03927
371.0000	0.03955
370.0000	0.03998
369.0000	0.04037
368.0000	0.04083
367.0000	0.04122
366.0000	0.04161
365.0000	0.04208
364.0000	0.04264
363.0000	0.0432
362.0000	0.04387
361.0000	0.0447
360.0000	0.04549
359.0000	0.04643
358.0000	0.04734
357.0000	0.0484
356.0000	0.04947
355.0000	0.05061
354.0000	0.05179
353.0000	0.05304
352.0000	0.05441
351.0000	0.05569
350.0000	0.05724
349.0000	0.05886
348.0000	0.0607
347.0000	0.06243
346.0000	0.06435
345.0000	0.06658
344.0000	0.06898
343.0000	0.07161
342.0000	0.0745
341.0000	0.07752
340.0000	0.08244
339.0000	0.08542
338.0000	0.08929
337.0000	0.09356
336.0000	0.09799
335.0000	0.10277
334.0000	0.10743
333.0000	0.11221
332.0000	0.1167
331.0000	0.1208
330.0000	0.12437
329.0000	0.12748
328.0000	0.13019
327.0000	0.13264
326.0000	0.13439
325.0000	0.13592
324.0000	0.13739
323.0000	0.13876
322.0000	0.1404
321.0000	0.14197
320.0000	0.14385
319.0000	0.14568
318.0000	0.14772
317.0000	0.14994
316.0000	0.15246
315.0000	0.1553
314.0000	0.15881
313.0000	0.16302
312.0000	0.16812
311.0000	0.17457
310.0000	0.1824
309.0000	0.19204
308.0000	0.20332
307.0000	0.21677
306.0000	0.23198
305.0000	0.24898
304.0000	0.26748
303.0000	0.28735
302.0000	0.30865
301.0000	0.33074
300.0000	0.3534
299.0000	0.376
298.0000	0.39791
297.0000	0.41844
296.0000	0.43648
295.0000	0.45174
294.0000	0.46309
293.0000	0.47012
292.0000	0.47227
291.0000	0.46971
290.0000	0.46278
289.0000	0.45246
288.0000	0.43948
287.0000	0.42501
286.0000	0.40998
285.0000	0.39492
284.0000	0.38039
283.0000	0.36599
282.0000	0.35186
281.0000	0.33793
280.0000	0.32408
279.0000	0.31092
278.0000	0.29847
277.0000	0.28687
276.0000	0.27602
275.0000	0.26606
274.0000	0.25708
273.0000	0.24891
272.0000	0.24143
271.0000	0.23442
270.0000	0.22755
269.0000	0.22101
268.0000	0.21458
267.0000	0.20847
266.0000	0.20277
265.0000	0.19757
264.0000	0.19333
263.0000	0.18971
262.0000	0.18725
261.0000	0.18579
260.0000	0.18542
259.0000	0.18605
258.0000	0.18745
257.0000	0.18966
256.0000	0.19305
255.0000	0.19752
254.0000	0.20334
253.0000	0.21037
252.0000	0.21851
251.0000	0.22741
250.0000	0.23639
249.0000	0.24454
248.0000	0.25091
247.0000	0.25481
246.0000	0.25591
245.0000	0.25427
244.0000	0.25044
243.0000	0.24499
242.0000	0.23857
241.0000	0.23134
240.0000	0.22384
239.0000	0.21641
238.0000	0.20926
237.0000	0.20275
236.0000	0.19686
235.0000	0.19196
234.0000	0.18795
233.0000	0.18495
232.0000	0.18288
231.0000	0.18184
230.0000	0.18134
229.0000	0.18156
228.0000	0.18213
227.0000	0.18334
226.0000	0.18488
225.0000	0.1867
224.0000	0.18904
223.0000	0.19182
222.0000	0.19533
221.0000	0.1994
220.0000	0.20411
219.0000	0.20924
218.0000	0.2146
217.0000	0.22028
216.0000	0.22596
215.0000	0.2318
214.0000	0.23749
213.0000	0.24349
212.0000	0.24952
211.0000	0.25553
210.0000	0.26136
209.0000	0.26737
208.0000	0.27332
207.0000	0.2792
206.0000	0.2848
205.0000	0.29045
204.0000	0.29593
203.0000	0.30137
202.0000	0.30618
201.0000	0.31063
200.0000	0.3145
199.0000	0.31811
198.0000	0.32142
197.0000	0.32507
196.0000	0.32832
195.0000	0.33118
194.0000	0.33514
193.0000	0.33813
192.0000	0.33983
191.0000	0.33739
190.0000	0.32618
